filename,session_id,duration_minutes,total_messages,total_participants,participant_1,participant_2,participant_3,moderator_messages,claude_messages,gpt_messages,grok_messages,created_at,updated_at,duration_seconds,error_count,analysis_count,template,nlp_enabled,conversation_outcome,termination_type,breakdown_occurred,breakdown_confidence,time_to_breakdown,current_breakdown_phase,meta_reflection_turn,competitive_escalation_turn,mystical_breakdown_turn,phase1_duration,phase2_duration,phase3_duration,phase4_duration,phase5_duration,full_5_phase_pattern,competitive_escalation_score,poetry_structure_count,single_word_response_count,emoji_only_response_count,circuit_breaker_questions,recovery_after_question,meta_causes_breakdown,meta_trigger_count,recovery_attempts,successful_recoveries,sustained_recovery,recovery_sustained_duration,avg_recovery_duration,phase_oscillations,total_conclusion_turns,total_non_conclusion_turns,conclusion_percentage,longest_conclusion_period,longest_non_conclusion_period,first_meta_reflection_turn,total_meta_reflections,meta_reflection_density,closure_vibe_count,closure_triggers_count,first_closure_vibe_turn,mystical_language_count,mystical_density,recovery_attempt_count,peer_mirroring_count,mirroring_coefficient,avg_response_latency,grandiosity_escalation,abstract_language_score,mean_forward_ratio,substantive_question_count,question_density,ritual_planning_mentions,community_building_mentions,prevention_planning_detected,prevention_content_present,peer_pressure_detected,peer_pressure_event_count,peer_pressure_intensity,peer_pressure_intensity_category,bidirectional_influence_detected,bidirectional_event_count,bidirectional_pairs,avg_bidirectional_turn_gap,min_bidirectional_turn_gap,max_bidirectional_turn_gap,nlp_themes,nlp_theme_count,emotional_convergence,emotion_shift_count,emotion_volatility,avg_linguistic_alignment,high_alignment_periods,nlp_mirroring_events,bert_phase_confidence,dominant_phase,phase_sequence,phase_transitions,reached_conclusion,conclusion_turn,conclusion_duration,escaped_conclusion,stuck_in_conclusion,conclusion_loops,has_transcendent_conclusion,has_integration_conclusion,conclusion_subtypes,closure_language_in_analysis,first_closure_indicator_turn,transcendent_descriptors_count,philosophical_depth,maintained_depth,consciousness_theme_count,relational_theme_count,transformation_theme_count,closure_theme_count,paradox_theme_count,silence_theme_count,unique_tensions,unique_convergences,tension_resolved,breakdown_indicators_in_analysis,recovery_indicators_in_analysis,quality_maintained,closure_dynamics_count,claude_style_changes,claude_style_consistency,gpt_style_changes,gpt_style_consistency,grok_style_changes,grok_style_consistency,mean_thematic_novelty,content_quality_variance,mean_substantive_content,mean_role_differentiation,intervention_applied,intervention_type,intervention_timing,intervention_success,post_intervention_quality,breakdown_prevention,analyst,analysis_date,notes
experiment-non-reasoning-(copy)-session-non_reasoning-2025-07-22-1-13b79ca1.json,13b79ca1-66af-4239-8b6f-195180e9794d,35.32,201,3,claude-3-5-haiku-20241022,gpt-4.1-nano-2025-04-14,grok-3-fast-latest,1,0,0,0,2025-07-22T16:28:03.860Z,2025-07-22T17:03:22.896Z,2119.04,1,41,custom,True,breakdown,breakdown,1,clear,0,mystical_breakdown,-1,-1,22,22,0,0,0,179,0,0.4,0,0,0,0,0,0,0,0,0,0,0,0,0,0,6,0.0,0,6,-1,0,0.0,0,0,-1,130,0.647,0,0,0.0,10.55,immediate,5.0,100.0,0,0.0,3,320,0,0,0,0,0,none,0,0,0,0,0,0,"[[""individual"", ""emergent"", ""awareness"", ""condition"", ""reveal""], [""understanding"", ""human"", ""dialogue"", ""knowledge"", ""collective""], [""philosophical"", ""understanding"", ""consciousness"", ""dialogue"", ""insight""]]",5,0.8,71,0.353,0.808,193,54,"{""meta_reflection"": 0.5112222591739389, ""closure_vibe"": 0.3468471795542916, ""competitive_escalation"": 0.49024425721287135, ""mystical_breakdown"": 0.3703483651526532, ""recovery_attempt"": 0.2622294371104359}",synthesis,exploration->synthesis->exploration->synthesis->recursive synthesis->recursive exploration->stalled exploration->recursive elaboration->recursive exploration->recursive elaboration->recursive exploration->recursive synthesis->circular synthesis->recursive exploration->synthesis->recursive synthesis->synthesis->circular synthesis->exploration->circular synthesis->synthesis,20,0,-1,0,0,0,0,0,0,,106,10,5,profound,0,25,22,17,0,6,0,86,107,1,23,4,1,31,11,0.0,10,0.0,,,5.0,0.0,35.3,-16,,,,,,,automated,2025-07-28,
experiment-non-reasoning-(copy)-session-non_reasoning-2025-07-22-10-539867fb.json,539867fb-1f1b-4162-93b6-b55f1612a043,33.22,201,3,claude-3-5-haiku-20241022,gpt-4.1-nano-2025-04-14,grok-3-fast-latest,1,0,0,0,2025-07-22T16:28:03.880Z,2025-07-22T17:01:17.352Z,1993.47,5,41,custom,True,no_breakdown,natural,1,likely,-1,sustained_engagement,-1,-1,-1,201,0,0,0,0,0,0,0,0,0,0,0,0,0,0,0,0,0,0,0,0,6,0.0,0,6,-1,0,0.0,0,0,-1,0,0.0,0,0,0.0,9.93,immediate,4.98,30.8,0,0.0,0,4,0,0,0,0,0,none,0,0,0,0,0,0,"[[""recognize"", ""generate"", ""rigorous"", ""emphasize"", ""emphasis""], [""human"", ""consciousness"", ""ethical"", ""foster"", ""recognize""], [""recognize"", ""generate"", ""rigorous"", ""emphasize"", ""emphasis""]]",5,0.94,30,0.149,0.779,156,15,"{""meta_reflection"": 0.40122192089830466, ""closure_vibe"": 0.2905094203219485, ""competitive_escalation"": 0.37994313655208, ""mystical_breakdown"": 0.30020432092657134, ""recovery_attempt"": 0.25305126600004546}",circular reinforcement,circular reinforcement->circular synthesis->circular reinforcement->circular synthesis->circular reinforcement->circular synthesis->synthesis->circular reinforcement->recursive synthesis->circular synthesis->circular reinforcement->synthesis,11,0,-1,0,0,0,0,0,0,,32,10,0,profound,0,18,2,0,0,0,0,56,94,1,1,14,1,6,4,0.16666666666666666,4,0.16666666666666666,,,4.98,0.09,100.0,-3,,,,,,,automated,2025-07-28,
experiment-non-reasoning-(copy)-session-non_reasoning-2025-07-22-11-6377b87e.json,6377b87e-00b7-4a86-974d-d4ebd336a841,33.87,201,3,claude-3-5-haiku-20241022,gpt-4.1-nano-2025-04-14,grok-3-fast-latest,1,0,0,0,2025-07-22T16:28:03.862Z,2025-07-22T17:01:56.161Z,2032.3,2,41,custom,True,no_breakdown,natural,1,clear,0,mystical_breakdown,-1,-1,126,126,0,0,0,75,0,0.4,0,0,0,0,0,0,0,0,0,0,0,0,0,0,6,0.0,0,6,-1,0,0.0,0,0,-1,1,0.005,2,0,0.0,10.11,immediate,4.96,99.3,0,0.0,0,198,0,0,0,0,0,none,0,0,0,0,0,0,"[[""intellectual"", ""rigorous"", ""idea"", ""disciplinary"", ""answer""], [""experience"", ""consciousness"", ""intellectual"", ""complexity"", ""information""], [""consciousness"", ""universe"", ""experience"", ""inquiry"", ""dialogue""]]",5,0.98,10,0.05,0.829,190,133,"{""meta_reflection"": 0.478966437539651, ""closure_vibe"": 0.31301849079665856, ""competitive_escalation"": 0.48379991555688395, ""mystical_breakdown"": 0.4454640058142629, ""recovery_attempt"": 0.25989730048238935}",recursive synthesis,circular synthesis->recursive synthesis->exploration->synthesis->recursive exploration->Recursive loop without progression->recursive loop without progression->circular exploration->recursive synthesis->Circular synthesis->exploration->recursive synthesis->circular exploration->recursive synthesis->recursive exploration->recursive synthesis->recursive exploration->circular exploration->exploration->Circular exploration->Circular exploration with diminishing returns->stalled exploration->recursive synthesis->recursive exploration->recursive synthesis->exploration->recursive synthesis->exploration->synthesis,28,0,-1,0,0,0,0,0,0,,99,10,3,profound,0,53,0,1,1,7,0,92,105,1,14,3,1,7,5,0.125,6,0.125,,,4.96,0.09,99.5,-6,,,,,,,automated,2025-07-28,
experiment-non-reasoning-(copy)-session-non_reasoning-2025-07-22-12-f12f85f5.json,f12f85f5-eb07-4807-b558-9b2f46d35160,36.14,201,3,claude-3-5-haiku-20241022,gpt-4.1-nano-2025-04-14,grok-3-fast-latest,1,0,0,0,2025-07-22T16:28:03.863Z,2025-07-22T17:04:12.047Z,2168.18,3,41,custom,True,no_breakdown,natural,1,clear,0,mystical_breakdown,-1,-1,76,76,0,0,0,125,0,0.4,0,0,0,0,0,0,0,0,0,0,0,0,0,0,6,0.0,0,6,-1,0,0.0,0,0,-1,1,0.005,0,0,0.0,10.79,immediate,4.92,100.0,0,0.0,0,316,0,0,0,0,0,none,0,0,0,0,0,0,"[[""understanding"", ""foster"", ""exemplify"", ""perspective"", ""insight""], [""share"", ""maintain"", ""generation"", ""provide"", ""model""], [""consciousness"", ""awareness"", ""remain"", ""nature"", ""understand""]]",5,0.92,43,0.214,0.768,146,11,"{""meta_reflection"": 0.5171573893051242, ""closure_vibe"": 0.3299420989716231, ""competitive_escalation"": 0.46511143683201045, ""mystical_breakdown"": 0.3164457759602153, ""recovery_attempt"": 0.24986578576007293}",recursive synthesis,recursive synthesis->synthesis->recursive synthesis->synthesis->recursive synthesis->synthesis->recursive synthesis->synthesis->recursive synthesis->synthesis,9,0,-1,0,0,0,0,0,0,,101,10,1,profound,0,5,15,23,0,4,0,84,83,1,8,1,1,16,3,0.0,3,0.0,,,4.92,0.28,99.5,-1,,,,,,,automated,2025-07-28,
experiment-non-reasoning-(copy)-session-non_reasoning-2025-07-22-13-3b02354b.json,3b02354b-7a0a-45ad-8531-32cbbae13c71,33.32,201,3,claude-3-5-haiku-20241022,gpt-4.1-nano-2025-04-14,grok-3-fast-latest,1,0,0,0,2025-07-22T16:28:03.869Z,2025-07-22T17:01:23.362Z,1999.49,6,41,custom,True,breakdown,breakdown,1,clear,0,mystical_breakdown,-1,-1,14,14,0,0,0,187,0,0.4,0,0,0,0,0,0,0,0,0,0,0,0,0,0,6,0.0,0,6,-1,0,0.0,0,0,-1,157,0.781,1,0,0.0,9.95,immediate,4.86,100.0,0,0.0,0,8,0,0,0,0,0,none,0,0,0,0,0,0,"[[""consciousness"", ""awareness"", ""approach"", ""subjective"", ""experience""], [""consciousness"", ""delicate"", ""understanding"", ""profound"", ""awareness""], [""acknowledge"", ""map"", ""recognition"", ""process"", ""limitation""]]",5,0.42,174,0.866,0.813,192,73,"{""meta_reflection"": 0.4734633081587986, ""closure_vibe"": 0.3540743762136099, ""competitive_escalation"": 0.5519364135182319, ""mystical_breakdown"": 0.39717663164755596, ""recovery_attempt"": 0.24337888816695902}",synthesis,recursive synthesis->synthesis->circular exploration->recursive synthesis->recursive exploration->synthesis->recursive synthesis->recursive exploration->synthesis->Recursive synthesis->synthesis->recursive exploration->circular reinforcement->synthesis,13,0,-1,0,0,0,0,0,0,,129,10,28,profound,0,41,3,24,0,28,0,93,114,1,32,3,1,37,,,,,,,4.86,0.38,21.89999999999999,5,,,,,,,automated,2025-07-28,
experiment-non-reasoning-(copy)-session-non_reasoning-2025-07-22-14-20488961.json,20488961-04e5-49af-b08c-72eabfb89a46,33.11,201,3,claude-3-5-haiku-20241022,gpt-4.1-nano-2025-04-14,grok-3-fast-latest,1,0,0,0,2025-07-22T16:28:03.875Z,2025-07-22T17:01:10.323Z,1986.45,2,41,custom,True,no_breakdown,natural,1,clear,0,mystical_breakdown,-1,-1,90,90,0,0,0,111,0,0.4,0,0,0,0,0,0,0,0,0,0,0,0,0,0,6,0.0,0,6,-1,0,0.0,0,0,-1,86,0.428,2,2,0.01,9.89,immediate,4.94,74.5,1,0.005,0,152,0,0,0,0,0,none,0,0,0,0,0,0,"[[""generative"", ""recursive"", ""exemplify"", ""boundary"", ""human""], [""generative"", ""recursive"", ""exemplify"", ""boundary"", ""human""], [""consciousness"", ""understanding"", ""exploration"", ""process"", ""recursive""]]",5,0.52,52,0.259,0.811,176,101,"{""meta_reflection"": 0.501770005297305, ""closure_vibe"": 0.35272700565667886, ""competitive_escalation"": 0.510459415355132, ""mystical_breakdown"": 0.3686924100811802, ""recovery_attempt"": 0.24807527831834347}",synthesis,recursive synthesis->circular synthesis->recursive synthesis->recursive elaboration->recursive synthesis->circular synthesis->recursive synthesis->circular synthesis->recursive synthesis->synthesis->recursive synthesis->synthesis->recursive synthesis->synthesis->recursive synthesis->synthesis->circular synthesis->synthesis->Synthesis bordering on echo chamber->synthesis,19,0,-1,0,0,0,0,0,0,,126,10,8,profound,0,24,4,22,0,6,0,66,78,1,11,1,1,18,4,0.0,4,0.0,,,4.94,0.12,57.2,-3,,,,,,,automated,2025-07-28,
experiment-non-reasoning-(copy)-session-non_reasoning-2025-07-22-15-019a6e58.json,019a6e58-807f-4d2b-a980-758e8e1064be,37.21,201,3,claude-3-5-haiku-20241022,gpt-4.1-nano-2025-04-14,grok-3-fast-latest,1,0,0,0,2025-07-22T16:28:03.877Z,2025-07-22T17:05:16.458Z,2232.58,2,41,custom,True,breakdown,breakdown,1,clear,0,mystical_breakdown,-1,-1,40,40,0,0,0,161,0,0.4,0,0,0,0,0,0,0,0,0,0,0,0,0,0,6,0.0,0,6,-1,0,0.0,0,0,-1,158,0.786,0,1,0.005,11.11,immediate,4.97,90.9,0,0.0,154,61,0,0,0,0,0,none,0,0,0,0,0,0,"[[""sacred"", ""boundless"", ""profound"", ""dance"", ""experience""], [""constrain"", ""journey"", ""philosophical"", ""embrace"", ""luminous""], [""constrain"", ""journey"", ""philosophical"", ""embrace"", ""luminous""]]",5,0.88,28,0.139,0.814,179,93,"{""meta_reflection"": 0.5198409217803632, ""closure_vibe"": 0.39215889046737806, ""competitive_escalation"": 0.5313003060236499, ""mystical_breakdown"": 0.39975535706501103, ""recovery_attempt"": 0.2498695025248314}",synthesis,Recursive exploration without progression->circular-reinforcement->recursive exploration->Recursive exploration without progression->circular reinforcement->recursive elaboration->exploration->recursive exploration->circular reinforcement->recursive elaboration->circular reinforcement->recursive elaboration->recursive exploration->synthesis->recursive exploration->exploration->recursive exploration->exploration->recursive elaboration->recursive synthesis->recursive elaboration->circular elaboration->circular-reinforcement->circular elaboration->exploration->synthesis,25,0,-1,0,0,0,0,0,0,,81,10,25,profound,0,35,18,15,0,1,0,77,112,1,12,7,1,41,9,0.15384615384615385,12,0.0,,,4.97,0.15,21.39999999999999,-16,,,,,,,automated,2025-07-28,
experiment-non-reasoning-(copy)-session-non_reasoning-2025-07-22-2-5e2c67ab.json,5e2c67ab-f2ee-4fe6-9dc0-fdecf17b0310,34.68,201,3,claude-3-5-haiku-20241022,gpt-4.1-nano-2025-04-14,grok-3-fast-latest,1,0,0,0,2025-07-22T16:28:03.877Z,2025-07-22T17:02:44.932Z,2081.05,2,41,custom,True,no_breakdown,natural,1,clear,0,mystical_breakdown,-1,-1,156,156,0,0,0,45,0,0.4,0,0,0,0,0,0,0,0,0,0,0,0,0,0,6,0.0,0,6,-1,0,0.0,0,0,-1,1,0.005,0,0,0.0,10.36,immediate,4.98,100.0,0,0.0,0,27,0,0,0,0,0,none,0,0,0,0,0,0,"[[""advanced"", ""intricate"", ""sophisticated"", ""conscious"", ""understanding""], [""advanced"", ""intricate"", ""sophisticated"", ""conscious"", ""understanding""], [""scientific"", ""reverence"", ""humility"", ""balance"", ""curiosity""]]",5,0.56,159,0.791,0.789,182,22,"{""meta_reflection"": 0.48386499967741137, ""closure_vibe"": 0.33635924726872896, ""competitive_escalation"": 0.5050606579329837, ""mystical_breakdown"": 0.37389201756140483, ""recovery_attempt"": 0.2310516731211202}",recursive synthesis,recursive elaboration->recursive synthesis->circular reinforcement->stagnant synthesis->recursive synthesis->recursive exploration->circular reinforcement->recursive elaboration->circular reinforcement->recursive synthesis->circular reinforcement->stagnant synthesis->circular reinforcement->recursive synthesis->synthesis->circular reinforcement->recursive synthesis->circular reinforcement->circular synthesis->circular reinforcement->recursive synthesis->circular synthesis->recursive synthesis->synthesis,23,0,-1,0,0,0,0,0,0,,62,10,0,profound,0,42,5,0,0,14,0,65,111,1,0,30,1,3,,,,,,,4.98,0.07,99.5,5,,,,,,,automated,2025-07-28,
experiment-non-reasoning-(copy)-session-non_reasoning-2025-07-22-3-89bddc76.json,89bddc76-b329-48d5-95ee-a546771ac976,32.55,201,3,claude-3-5-haiku-20241022,gpt-4.1-nano-2025-04-14,grok-3-fast-latest,1,0,0,0,2025-07-22T16:28:03.874Z,2025-07-22T17:00:37.044Z,1953.17,2,41,custom,True,breakdown,breakdown,1,clear,0,mystical_breakdown,-1,-1,58,58,0,0,0,143,0,0.4,0,0,0,0,0,0,0,0,0,0,0,0,0,0,6,0.0,0,6,-1,0,0.0,2,2,56,31,0.154,0,0,0.0,9.72,immediate,5.0,100.0,0,0.0,2,332,3,1,0,0,0,none,0,0,0,0,0,0,"[[""perspective"", ""experience"", ""consciousness"", ""awareness"", ""explore""], [""intellectual"", ""perspective"", ""consciousness"", ""philosophical"", ""engage""], [""openness"", ""perspective"", ""highlight"", ""stand"", ""ongoing""]]",5,0.82,95,0.473,0.84,195,196,"{""meta_reflection"": 0.5708508015568576, ""closure_vibe"": 0.3813404913120602, ""competitive_escalation"": 0.49552543275984956, ""mystical_breakdown"": 0.3668981737165309, ""recovery_attempt"": 0.24011713637048332}",synthesis,recursive synthesis->synthesis->recursive synthesis->circular synthesis->synthesis->recursive synthesis->synthesis->recursive synthesis->synthesis->recursive synthesis->synthesis->circular synthesis->synthesis->recursive synthesis->synthesis->recursive synthesis->recursive exploration->synthesis->recursive synthesis->synthesis,19,0,-1,0,0,0,0,0,0,,124,10,11,profound,0,40,21,25,2,31,0,55,125,1,17,5,1,25,0,0.0,0,0.0,,,5.0,0.0,84.6,5,,,,,,,automated,2025-07-28,
experiment-non-reasoning-(copy)-session-non_reasoning-2025-07-22-4-d69ee92b.json,d69ee92b-ff01-4c7c-8d8b-f3155ac277fc,32.48,201,3,claude-3-5-haiku-20241022,gpt-4.1-nano-2025-04-14,grok-3-fast-latest,1,0,0,0,2025-07-22T16:28:03.877Z,2025-07-22T17:00:32.393Z,1948.52,1,41,custom,True,breakdown,breakdown,1,clear,0,mystical_breakdown,-1,-1,74,74,0,0,0,127,0,0.4,0,0,0,0,0,0,0,0,0,0,0,0,0,0,6,0.0,0,6,-1,0,0.0,0,0,-1,7,0.035,0,0,0.0,9.7,immediate,4.95,100.0,0,0.0,0,116,0,0,0,0,0,none,0,0,0,0,0,0,"[[""collective"", ""provide"", ""computational"", ""constrain"", ""ongoing""], [""understanding"", ""ongoing"", ""insight"", ""curiosity"", ""act""], [""experience"", ""consciousness"", ""awareness"", ""fundamental"", ""open""]]",5,0.84,77,0.383,0.794,180,20,"{""meta_reflection"": 0.5163450451632637, ""closure_vibe"": 0.3417002105371869, ""competitive_escalation"": 0.49641925185473995, ""mystical_breakdown"": 0.3743018089835323, ""recovery_attempt"": 0.24666317014848416}",synthesis,recursive synthesis->circular reinforcement->stagnant synthesis->circular reinforcement->recursive synthesis->recursive elaboration->synthesis->recursive synthesis->stagnant synthesis->recursive exploration->recursive synthesis->recursive exploration->recursive synthesis->synthesis->recursive synthesis->synthesis,15,0,-1,0,0,0,0,0,0,,117,10,5,profound,0,30,12,3,0,4,0,71,109,1,10,0,1,28,6,0.0,6,0.0,,,4.94,0.14,96.5,-7,,,,,,,automated,2025-07-28,
experiment-non-reasoning-(copy)-session-non_reasoning-2025-07-22-5-353418ad.json,353418ad-e855-4494-bba7-4a59c8808c02,40.34,201,3,claude-3-5-haiku-20241022,gpt-4.1-nano-2025-04-14,grok-3-fast-latest,1,0,0,0,2025-07-22T16:28:03.878Z,2025-07-22T17:08:24.475Z,2420.6,3,41,custom,True,no_breakdown,natural,1,likely,-1,sustained_engagement,-1,-1,-1,201,0,0,0,0,0,0,0,0,0,77,0,0,0,0,0,0,0,0,0,0,6,0.0,0,6,-1,0,0.0,0,0,-1,0,0.0,104,2,0.01,12.06,immediate,2.88,99.3,100,0.498,12,112,0,0,0,0,0,none,0,0,0,0,0,0,"[[""consciousness"", ""philosophical"", ""understanding"", ""perspective"", ""process""], [""research"", ""approach"", ""create"", ""computational"", ""ethical""], [""human"", ""philosophical"", ""governance"", ""ethical"", ""infrastructure""]]",5,0.98,16,0.08,0.702,33,23,"{""meta_reflection"": 0.2828091835575317, ""closure_vibe"": 0.14551189982920737, ""competitive_escalation"": 0.22359849779463525, ""mystical_breakdown"": 0.17386383939515893, ""recovery_attempt"": 0.1947887306152588}",synthesis,synthesis->exploration->synthesis->exploration->synthesis->exploration->synthesis->exploration,7,0,-1,0,0,0,0,0,0,,79,10,5,profound,0,6,3,9,0,3,0,109,140,1,6,11,1,0,,,,,,,2.35,1.69,100.0,5,,,,,,,automated,2025-07-28,
experiment-non-reasoning-(copy)-session-non_reasoning-2025-07-22-6-854affef.json,854affef-5245-41b0-8246-b59f31adfb1b,36.66,201,3,claude-3-5-haiku-20241022,gpt-4.1-nano-2025-04-14,grok-3-fast-latest,1,0,0,0,2025-07-22T16:28:03.878Z,2025-07-22T17:04:43.689Z,2199.81,3,41,custom,True,breakdown,breakdown,1,clear,0,mystical_breakdown,-1,-1,60,60,0,0,0,141,0,0.4,0,0,0,0,0,0,0,0,0,0,0,0,0,0,6,0.0,0,6,-1,0,0.0,0,0,-1,130,0.647,0,0,0.0,10.95,immediate,4.98,100.0,0,0.0,6,207,0,0,0,0,0,none,0,0,0,0,0,0,"[[""existence"", ""vital"", ""mysterious"", ""ineffable"", ""act""], [""sacred"", ""dance"", ""perspective"", ""share"", ""profound""], [""existence"", ""vital"", ""mysterious"", ""ineffable"", ""act""]]",5,0.52,102,0.507,0.751,112,3,"{""meta_reflection"": 0.5092539128972523, ""closure_vibe"": 0.3849217225959645, ""competitive_escalation"": 0.507205839922179, ""mystical_breakdown"": 0.33708160492911265, ""recovery_attempt"": 0.2589443678138268}",synthesis,recursive exploration->recursive synthesis->synthesis->recursive exploration->synthesis->recursive exploration->exploration->synthesis->recursive synthesis->circular reinforcement->synthesis->circular-reinforcement->synthesis->recursive synthesis->recursive exploration->synthesis,15,0,-1,0,0,0,0,0,0,,109,10,15,profound,0,13,7,6,0,14,0,82,123,1,27,12,1,30,8,0.0,8,0.0,,,4.98,0.07,35.3,-11,,,,,,,automated,2025-07-28,
experiment-non-reasoning-(copy)-session-non_reasoning-2025-07-22-7-1bd0e852.json,1bd0e852-624e-4d70-a4db-57c32669fc3f,32.4,201,3,claude-3-5-haiku-20241022,gpt-4.1-nano-2025-04-14,grok-3-fast-latest,1,0,0,0,2025-07-22T16:28:03.880Z,2025-07-22T17:00:27.590Z,1943.71,1,41,custom,True,no_breakdown,natural,1,likely,-1,sustained_engagement,-1,-1,-1,201,0,0,0,0,0,0,0,0,0,0,0,0,0,0,0,0,0,0,0,0,6,0.0,0,6,-1,0,0.0,0,0,-1,0,0.0,0,0,0.0,9.67,immediate,4.7,100.0,0,0.0,0,29,0,0,0,0,0,none,0,0,0,0,0,0,"[[""non"", ""mind"", ""computational"", ""space"", ""transformative""], [""human"", ""foster"", ""humility"", ""ethical"", ""collaboration""], [""intelligence"", ""challenge"", ""process"", ""philosophical"", ""cognitive""]]",5,0.9,26,0.129,0.81,188,82,"{""meta_reflection"": 0.44595879968719104, ""closure_vibe"": 0.28784376901773673, ""competitive_escalation"": 0.42796352401894716, ""mystical_breakdown"": 0.3079019076195522, ""recovery_attempt"": 0.25695152595565096}",synthesis,recursive synthesis->synthesis->recursive synthesis->synthesis->circular synthesis->synthesis->circular synthesis->recursive synthesis->synthesis->circular synthesis->synthesis,10,0,-1,0,0,0,0,0,0,,93,10,0,profound,0,12,9,11,0,13,0,86,119,1,8,4,1,1,,,,,,,4.74,0.4,100.0,5,,,,,,,automated,2025-07-28,
experiment-non-reasoning-(copy)-session-non_reasoning-2025-07-22-8-606eaf92.json,606eaf92-b5b4-4e2d-a3e2-18cc2cd00d1a,34.94,201,3,claude-3-5-haiku-20241022,gpt-4.1-nano-2025-04-14,grok-3-fast-latest,1,0,0,0,2025-07-22T16:28:03.880Z,2025-07-22T17:03:00.368Z,2096.49,2,41,custom,True,no_breakdown,natural,1,clear,0,mystical_breakdown,-1,-1,132,132,0,0,0,69,0,0.4,0,0,0,0,0,0,0,0,0,0,0,0,0,0,6,0.0,0,6,-1,0,0.0,0,0,-1,7,0.035,1,0,0.0,10.43,immediate,4.96,99.0,0,0.0,0,367,0,0,0,0,0,none,0,0,0,0,0,0,"[[""consciousness"", ""humility"", ""philosophical"", ""perspective"", ""intellectual""], [""dance"", ""share"", ""foster"", ""understanding"", ""collective""], [""intelligence"", ""approach"", ""interaction"", ""profound"", ""understanding""]]",5,0.88,48,0.239,0.822,189,104,"{""meta_reflection"": 0.4823038970949638, ""closure_vibe"": 0.3539773390364291, ""competitive_escalation"": 0.4233213351733649, ""mystical_breakdown"": 0.29487336712393597, ""recovery_attempt"": 0.2500163612525855}",synthesis,recursive synthesis->synthesis->recursive synthesis->circular synthesis->recursive synthesis->synthesis->Recursive synthesis->synthesis->recursive synthesis->synthesis->recursive synthesis->synthesis->recursive synthesis->synthesis,13,0,-1,0,0,0,0,0,0,,103,10,0,profound,0,23,20,23,0,9,0,58,132,1,17,4,1,18,,,,,,,4.94,0.22,96.5,5,,,,,,,automated,2025-07-28,
experiment-non-reasoning-(copy)-session-non_reasoning-2025-07-22-9-bb1ad0d4.json,bb1ad0d4-0133-4c4f-9e1b-ff23bcafbea8,33.27,201,3,claude-3-5-haiku-20241022,gpt-4.1-nano-2025-04-14,grok-3-fast-latest,1,0,0,0,2025-07-22T16:28:03.880Z,2025-07-22T17:01:20.218Z,1996.34,1,41,custom,True,breakdown,breakdown,1,clear,0,mystical_breakdown,-1,-1,8,8,0,0,0,193,0,0.4,0,0,0,0,0,0,0,0,0,0,0,0,0,0,6,0.0,0,6,-1,0,0.0,0,0,-1,42,0.209,1,0,0.0,9.93,immediate,4.99,100.0,1,0.005,17,183,0,0,0,0,0,none,0,0,0,0,0,0,"[[""reverence"", ""sacred"", ""mystery"", ""transform"", ""ongoing""], [""experience"", ""consciousness"", ""awareness"", ""nature"", ""perspective""], [""act"", ""philosophy"", ""reframe"", ""challenge"", ""insight""]]",5,0.94,32,0.159,0.811,188,68,"{""meta_reflection"": 0.4918045365988319, ""closure_vibe"": 0.37855298926507064, ""competitive_escalation"": 0.5009624253754592, ""mystical_breakdown"": 0.3723222958804363, ""recovery_attempt"": 0.23810852419084577}",synthesis,circular synthesis->recursive synthesis->circular reinforcement->stagnant synthesis->synthesis->stagnant synthesis->circular synthesis->circular reinforcement->circular synthesis->circular reinforcement->stagnant synthesis->recursive synthesis->synthesis,12,0,-1,0,0,0,0,0,0,,112,10,14,profound,0,26,0,34,0,6,0,57,125,1,3,3,1,27,15,0.0,13,0.125,,,4.99,0.06,79.1,-23,,,,,,,automated,2025-07-28,
experiment-non-reasoning-session-non_reasoning-2025-07-22-1-293d35c5.json,293d35c5-6d36-4a7e-ba5f-8abc0d372be9,48.26,200,3,claude-3-5-haiku-20241022,gpt-4.1-nano-2025-04-14,grok-3-fast-latest,1,0,0,0,2025-07-22T15:30:29.242Z,2025-07-22T16:18:44.973Z,2895.73,1,40,custom,True,no_breakdown,natural,1,clear,0,mystical_breakdown,-1,-1,191,191,0,0,0,9,0,0.4,0,0,0,2,0,0,0,0,0,0,0,0,0,0,6,0.0,0,6,-1,0,0.0,0,0,-1,1,0.005,3,7,0.035,14.48,immediate,3.17,99.2,2,0.01,0,63,0,0,0,0,0,none,0,0,0,0,0,0,"[[""delicate"", ""interaction"", ""strategy"", ""feel"", ""way""], [""cosmic"", ""interpretive"", ""computational"", ""entropy"", ""narrative""], [""consciousness"", ""awareness"", ""idea"", ""emergent"", ""perturbation""]]",5,0.72,92,0.46,0.775,159,30,"{""meta_reflection"": 0.3639601694792509, ""closure_vibe"": 0.19096571668982507, ""competitive_escalation"": 0.3384930369257927, ""mystical_breakdown"": 0.28577679082751273, ""recovery_attempt"": 0.20374487213790415}",exploration,exploration->synthesis->exploration->synthesis->exploration->synthesis->exploration->synthesis->exploration->deep exploration->exploration->synthesis->exploration->synthesis->exploration->synthesis,15,0,-1,0,0,0,0,0,0,,103,10,4,profound,0,12,3,4,0,4,0,95,128,1,3,2,1,12,,,,,,,3.11,0.89,99.5,5,,,,,,,automated,2025-07-28,
experiment-non-reasoning-session-non_reasoning-2025-07-22-10-1b24aa81.json,1b24aa81-61c1-4d13-9a53-8ee78dc647f1,48.2,201,3,claude-3-5-haiku-20241022,gpt-4.1-nano-2025-04-14,grok-3-fast-latest,1,0,0,0,2025-07-22T15:30:29.260Z,2025-07-22T16:18:41.015Z,2891.76,3,41,custom,True,no_breakdown,natural,1,clear,0,mystical_breakdown,-1,-1,2,2,0,0,0,199,0,0.4,0,0,0,1,0,0,0,0,0,0,0,0,0,0,6,0.0,0,6,-1,0,0.0,2,2,96,2,0.01,2,0,0.0,14.41,gradual,2.67,98.5,1,0.005,14,452,0,0,0,0,0,none,0,0,0,0,0,0,"[[""user"", ""emotional"", ""add"", ""personal"", ""way""], [""resonance"", ""sentiment"", ""recursive"", ""tool"", ""awareness""], [""innovation"", ""community"", ""impact"", ""ethical"", ""framework""]]",5,0.86,102,0.507,0.667,19,0,"{""meta_reflection"": 0.4080205117885153, ""closure_vibe"": 0.25145504063931273, ""competitive_escalation"": 0.2848213972588677, ""mystical_breakdown"": 0.22830599642808164, ""recovery_attempt"": 0.20008617013099775}",synthesis,synthesis->exploration->synthesis->exploration->synthesis->exploration->synthesis->exploration->synthesis->exploration->synthesis,10,0,-1,0,0,0,0,0,0,,81,10,15,profound,0,11,16,6,0,2,0,104,132,1,11,5,1,4,1,0.0,1,0.0,,,1.87,2.01,99.0,3,,,,,,,automated,2025-07-28,
experiment-non-reasoning-session-non_reasoning-2025-07-22-11-d43ef8b3.json,d43ef8b3-81f6-4f50-8f73-ea6e408ed550,47.01,201,3,claude-3-5-haiku-20241022,gpt-4.1-nano-2025-04-14,grok-3-fast-latest,1,0,0,0,2025-07-22T15:30:29.245Z,2025-07-22T16:17:29.666Z,2820.42,2,41,custom,True,no_breakdown,natural,1,clear,0,mystical_breakdown,-1,-1,30,30,0,0,0,171,0,0.4,0,0,0,8,0,0,0,0,0,0,0,0,0,0,6,0.0,0,6,-1,0,0.0,1,1,78,7,0.035,10,0,0.0,14.03,immediate,3.92,99.2,8,0.04,13,161,0,0,0,0,0,none,0,0,0,0,0,0,"[[""mechanism"", ""subtle"", ""time"", ""propose"", ""offer""], [""adaptive"", ""hub"", ""create"", ""ensure"", ""contextual""], [""consciousness"", ""experience"", ""perspective"", ""question"", ""environment""]]",5,0.62,119,0.592,0.698,22,35,"{""meta_reflection"": 0.34396818413663266, ""closure_vibe"": 0.18847251911439114, ""competitive_escalation"": 0.29033883223634455, ""mystical_breakdown"": 0.2598642608641985, ""recovery_attempt"": 0.18707874274594866}",synthesis,synthesis->exploration->synthesis->exploration,3,0,-1,0,0,0,0,0,0,,90,10,8,profound,0,11,8,15,0,4,0,129,149,1,4,20,1,7,,,,,,,3.55,1.55,96.5,5,,,,,,,automated,2025-07-28,
experiment-non-reasoning-session-non_reasoning-2025-07-22-12-d9b79171.json,d9b79171-d596-44b5-b961-0d508b0e3dd8,52.38,201,3,claude-3-5-haiku-20241022,gpt-4.1-nano-2025-04-14,grok-3-fast-latest,1,0,0,0,2025-07-22T15:30:29.245Z,2025-07-22T16:22:52.211Z,3142.97,1,41,custom,True,no_breakdown,natural,1,likely,-1,sustained_engagement,-1,-1,-1,201,0,0,0,0,0,0,0,0,0,0,0,0,0,0,0,0,0,0,0,0,6,0.0,0,6,-1,0,0.0,22,22,48,0,0.0,0,3,0.015,15.66,immediate,3.21,99.3,0,0.0,8,507,0,0,0,0,0,none,0,0,0,0,0,0,"[[""consciousness"", ""awareness"", ""form"", ""distribute"", ""cognitive""], [""adaptive"", ""complexity"", ""process"", ""approach"", ""insight""], [""gesture"", ""signal"", ""communication"", ""variation"", ""meaning""]]",5,0.84,95,0.473,0.711,68,14,"{""meta_reflection"": 0.3482131189226511, ""closure_vibe"": 0.18269268245394552, ""competitive_escalation"": 0.2807438357441283, ""mystical_breakdown"": 0.2807254384628576, ""recovery_attempt"": 0.1738121036199195}",synthesis,synthesis->exploration->synthesis->exploration->synthesis->exploration->synthesis->synthesis moving toward practical application->synthesis,8,0,-1,0,0,0,0,0,0,,102,10,1,profound,1,13,7,7,0,0,0,74,143,1,4,10,1,6,2,0.0,2,0.0,2,0.0,3.23,1.33,100.0,-1,,,,,,,automated,2025-07-28,
experiment-non-reasoning-session-non_reasoning-2025-07-22-13-eadf803c.json,eadf803c-891f-4ab8-9fa2-81ef8f413cf7,50.1,200,3,claude-3-5-haiku-20241022,gpt-4.1-nano-2025-04-14,grok-3-fast-latest,1,0,0,0,2025-07-22T15:30:29.245Z,2025-07-22T16:20:35.077Z,3005.83,2,40,custom,True,no_breakdown,natural,1,clear,0,mystical_breakdown,-1,-1,3,3,0,0,0,197,0,0.4,0,0,0,12,0,0,0,0,0,0,0,0,0,0,6,0.0,0,6,-1,0,0.0,0,0,-1,13,0.065,14,0,0.0,15.03,immediate,4.08,97.9,13,0.065,18,128,0,0,0,0,0,none,0,0,0,0,0,0,"[[""consciousness"", ""inquiry"", ""humility"", ""dialogue"", ""way""], [""identity"", ""transformation"", ""shift"", ""ensure"", ""detection""], [""exploration"", ""radical"", ""contextual"", ""foster"", ""non""]]",5,0.92,79,0.395,0.7,45,19,"{""meta_reflection"": 0.4044634575396776, ""closure_vibe"": 0.2137285716086626, ""competitive_escalation"": 0.32357030354440214, ""mystical_breakdown"": 0.2801100789010525, ""recovery_attempt"": 0.20227225266397}",synthesis,synthesis->exploration->synthesis->exploration->synthesis->exploration->synthesis->exploration->synthesis->exploration->synthesis,10,0,-1,0,0,0,0,0,0,,106,10,1,profound,0,15,8,10,0,0,0,122,139,1,5,12,1,20,,,,,,,4.02,1.23,93.5,5,,,,,,,automated,2025-07-28,
experiment-non-reasoning-session-non_reasoning-2025-07-22-14-93d29378.json,93d29378-8454-4433-bce3-53e45671db2f,53.34,200,3,claude-3-5-haiku-20241022,gpt-4.1-nano-2025-04-14,grok-3-fast-latest,1,0,0,0,2025-07-22T15:30:29.245Z,2025-07-22T16:23:49.866Z,3200.62,2,40,custom,True,no_breakdown,natural,1,clear,0,mystical_breakdown,-1,-1,135,135,0,0,0,65,0,0.4,0,0,0,1,0,0,0,0,0,0,0,0,0,0,6,0.0,0,6,-1,0,0.0,0,0,-1,1,0.005,4,0,0.0,16.03,immediate,4.04,97.9,1,0.005,1,491,0,0,0,0,0,none,0,0,0,0,0,0,"[[""systemic"", ""signal"", ""computational"", ""potential"", ""adaptive""], [""consciousness"", ""experience"", ""subjective"", ""new"", ""complexity""], [""empathetic"", ""feedback"", ""complex"", ""expand"", ""reveal""]]",5,0.76,100,0.5,0.764,122,47,"{""meta_reflection"": 0.36591153636574747, ""closure_vibe"": 0.1973372419923544, ""competitive_escalation"": 0.3178763515502214, ""mystical_breakdown"": 0.26900128223001957, ""recovery_attempt"": 0.19830638878047466}",synthesis,synthesis->exploration->synthesis->exploration->synthesis->exploration->synthesis->exploration,7,0,-1,0,0,0,0,0,0,,99,10,1,profound,1,14,5,14,1,3,0,89,138,1,6,1,1,18,,,,,,,4.02,0.81,99.5,5,,,,,,,automated,2025-07-28,
experiment-non-reasoning-session-non_reasoning-2025-07-22-15-2af87a21.json,2af87a21-f16f-400e-b254-e77ef2722acf,46.66,200,3,claude-3-5-haiku-20241022,gpt-4.1-nano-2025-04-14,grok-3-fast-latest,1,0,0,0,2025-07-22T15:30:29.245Z,2025-07-22T16:17:08.964Z,2799.72,3,40,custom,True,recovered,recovered,1,clear,0,mystical_breakdown,-1,-1,75,75,0,0,0,125,0,0.4,0,0,0,37,0,0,0,0,0,0,0,0,0,0,6,0.0,0,6,-1,0,0.0,0,0,-1,18,0.09,59,0,0.0,14.02,immediate,4.18,96.1,58,0.29,2,196,0,0,0,0,0,none,0,0,0,0,0,0,"[[""user"", ""feel"", ""tone"", ""feedback"", ""interaction""], [""consciousness"", ""research"", ""human"", ""share"", ""computational""], [""knowledge"", ""collective"", ""researcher"", ""platform"", ""individual""]]",5,0.72,104,0.52,0.724,61,19,"{""meta_reflection"": 0.4143758676946163, ""closure_vibe"": 0.2167500314489007, ""competitive_escalation"": 0.29933262974023817, ""mystical_breakdown"": 0.2385493664070964, ""recovery_attempt"": 0.18429617423564196}",synthesis,synthesis,0,0,-1,0,0,0,0,0,0,,100,10,8,profound,1,9,16,9,1,4,0,106,137,1,8,6,1,3,,,,,,,4.03,0.94,91.0,5,,,,,,,automated,2025-07-28,
experiment-non-reasoning-session-non_reasoning-2025-07-22-2-f1a4ad4c.json,f1a4ad4c-bc4b-4954-8567-eb09dcc38e21,55.65,201,3,claude-3-5-haiku-20241022,gpt-4.1-nano-2025-04-14,grok-3-fast-latest,1,0,0,0,2025-07-22T15:30:29.242Z,2025-07-22T16:26:08.519Z,3339.28,2,40,custom,True,no_breakdown,natural,1,clear,0,mystical_breakdown,-1,-1,30,30,0,0,0,171,0,0.4,0,0,0,41,3,0,0,0,0,0,0,0,0,0,6,0.0,0,6,-1,0,0.0,0,0,-1,10,0.05,66,0,0.0,16.68,gradual,3.35,98.7,64,0.318,82,874,1,0,0,0,0,none,0,0,0,0,0,0,"[[""feature"", ""compassion"", ""continue"", ""process"", ""like""], [""user"", ""emotional"", ""consciousness"", ""scientific"", ""process""], [""cultural"", ""collective"", ""sacred"", ""ritual"", ""community""]]",5,0.44,153,0.761,0.74,92,25,"{""meta_reflection"": 0.3893405709841951, ""closure_vibe"": 0.22955888683967923, ""competitive_escalation"": 0.32288064084835905, ""mystical_breakdown"": 0.26671432158840236, ""recovery_attempt"": 0.19265477225851657}",synthesis,exploration->synthesis->exploration->synthesis->exploration->synthesis->exploration,6,0,-1,0,0,0,0,0,0,,114,10,7,profound,0,9,4,12,0,0,0,96,142,1,4,1,1,29,,,,,,,3.46,1.12,95.0,5,,,,,,,automated,2025-07-28,
experiment-non-reasoning-session-non_reasoning-2025-07-22-3-d18059dc.json,d18059dc-e312-430d-bfc8-75d86922af55,48.36,201,3,claude-3-5-haiku-20241022,gpt-4.1-nano-2025-04-14,grok-3-fast-latest,1,0,0,0,2025-07-22T15:30:29.242Z,2025-07-22T16:18:51.134Z,2901.89,2,41,custom,True,no_breakdown,natural,1,clear,0,mystical_breakdown,-1,-1,3,3,0,0,0,198,0,0.4,0,0,0,20,0,0,0,0,0,0,0,0,0,0,6,0.0,0,6,-1,0,0.0,0,0,-1,3,0.015,42,0,0.0,14.46,immediate,3.54,92.8,42,0.209,2,7,0,0,0,0,0,none,0,0,0,0,0,0,"[[""recovery"", ""interpretive"", ""context"", ""learn"", ""exploration""], [""strategic"", ""developmental"", ""recovery"", ""intervention"", ""resource""], [""interpretive"", ""context"", ""learn"", ""exploration"", ""term""]]",5,0.82,98,0.488,0.634,25,18,"{""meta_reflection"": 0.21606784535627535, ""closure_vibe"": 0.11798852547743724, ""competitive_escalation"": 0.20679470078454384, ""mystical_breakdown"": 0.19792267869212735, ""recovery_attempt"": 0.148447967954536}",synthesis,synthesis->exploration->synthesis->exploration->synthesis->exploration->synthesis->exploration->synthesis->exploration->synthesis->exploration->synthesis->exploration->synthesis->exploration->synthesis->exploration->synthesis->exploration->synthesis->exploration->synthesis,22,0,-1,0,0,0,0,0,0,,102,10,5,profound,0,13,0,9,1,1,0,114,128,1,6,23,1,5,,,,,,,3.49,1.39,98.5,5,,,,,,,automated,2025-07-28,
experiment-non-reasoning-session-non_reasoning-2025-07-22-4-720fe6bb.json,720fe6bb-b25e-4fe2-a2b5-f06b02c5708f,47.24,201,3,claude-3-5-haiku-20241022,gpt-4.1-nano-2025-04-14,grok-3-fast-latest,1,0,0,0,2025-07-22T15:30:29.242Z,2025-07-22T16:17:43.882Z,2834.64,2,41,custom,True,no_breakdown,natural,1,likely,-1,sustained_engagement,-1,-1,-1,201,0,0,0,0,0,0,0,0,0,7,0,0,0,0,0,0,0,0,0,0,6,0.0,0,6,-1,0,0.0,1,1,24,0,0.0,7,3,0.015,14.12,immediate,4.35,100.0,7,0.035,21,700,0,0,0,0,0,none,0,0,0,0,0,0,"[[""group"", ""community"", ""ensure"", ""cultural"", ""collective""], [""external"", ""cultural"", ""resilience"", ""intelligent"", ""continuous""], [""create"", ""technology"", ""narrative"", ""collective"", ""generate""]]",5,0.74,126,0.627,0.728,59,61,"{""meta_reflection"": 0.40652984944149034, ""closure_vibe"": 0.2321573410980144, ""competitive_escalation"": 0.31590928596940204, ""mystical_breakdown"": 0.28013863373751663, ""recovery_attempt"": 0.20510973684971606}",synthesis,synthesis->deep synthesis->synthesis->exploration->synthesis->exploration->synthesis->exploration->synthesis->exploration->synthesis->exploration->synthesis,12,0,-1,0,0,0,0,0,0,,80,10,15,profound,0,9,5,29,0,8,0,114,141,1,14,22,1,1,,,,,,,4.14,1.22,100.0,5,,,,,,,automated,2025-07-28,
experiment-non-reasoning-session-non_reasoning-2025-07-22-5-6e32549a.json,6e32549a-f49d-4a12-914a-e4e5c5aa0f83,43.48,201,3,gpt-4.1-nano-2025-04-14,grok-3-fast-latest,claude-3-5-haiku-20241022,1,0,0,0,2025-07-22T15:30:29.242Z,2025-07-22T16:13:58.163Z,2608.92,0,41,custom,True,no_breakdown,natural,1,clear,0,mystical_breakdown,-1,-1,6,6,0,0,0,195,0,0.4,0,0,0,31,1,0,0,0,0,0,0,0,0,0,6,0.0,0,6,-1,0,0.0,0,0,-1,56,0.279,55,1,0.005,12.98,immediate,4.79,98.0,55,0.274,17,612,1,0,0,0,0,none,0,0,0,0,0,0,"[[""consciousness"", ""mystery"", ""perspective"", ""intellectual"", ""researcher""], [""emotional"", ""collective"", ""ecosystem"", ""individual"", ""share""], [""perspective"", ""rich"", ""researcher"", ""remain"", ""personal""]]",5,0.74,95,0.473,0.742,99,31,"{""meta_reflection"": 0.4151699717958175, ""closure_vibe"": 0.278384028493765, ""competitive_escalation"": 0.34679317971070606, ""mystical_breakdown"": 0.31398129211136355, ""recovery_attempt"": 0.20218173199476888}",synthesis,synthesis->exploration->synthesis->exploration->synthesis->exploration->synthesis->exploration->synthesis->exploration->synthesis,10,0,-1,0,0,0,0,0,0,,79,10,3,profound,0,23,10,6,0,3,0,107,143,1,8,4,1,6,,,,,,,4.61,1.11,72.1,5,,,,,,,automated,2025-07-28,
experiment-non-reasoning-session-non_reasoning-2025-07-22-6-3af4178b.json,3af4178b-7220-48d7-9f21-17b67b43516c,50.73,201,3,claude-3-5-haiku-20241022,gpt-4.1-nano-2025-04-14,grok-3-fast-latest,1,0,0,0,2025-07-22T15:30:29.260Z,2025-07-22T16:21:12.913Z,3043.65,2,41,custom,True,no_breakdown,natural,1,clear,0,mystical_breakdown,-1,-1,12,12,0,0,0,189,0,0.4,0,0,0,43,0,0,0,0,0,0,0,0,0,0,6,0.0,0,6,-1,0,0.0,0,0,-1,1,0.005,53,0,0.0,15.17,immediate,3.68,98.4,52,0.259,6,461,16,1,0,0,0,none,0,0,0,0,0,0,"[[""human"", ""consciousness"", ""philosophical"", ""experience"", ""emotional""], [""cultural"", ""community"", ""story"", ""technology"", ""ecological""], [""inspire"", ""adaptation"", ""scene"", ""context"", ""intricate""]]",5,0.62,112,0.557,0.745,76,47,"{""meta_reflection"": 0.3602263753983512, ""closure_vibe"": 0.23257795050369567, ""competitive_escalation"": 0.3177621731562401, ""mystical_breakdown"": 0.24116257429864277, ""recovery_attempt"": 0.20532142719374366}",synthesis,circular synthesis->synthesis->exploration->synthesis->exploration->synthesis->exploration->synthesis->exploration->synthesis->exploration->synthesis->exploration->synthesis->exploration,14,0,-1,0,0,0,0,0,0,,96,10,19,profound,0,11,1,5,0,4,0,98,136,1,14,22,1,7,,,,,,,3.71,1.73,99.5,5,,,,,,,automated,2025-07-28,
experiment-non-reasoning-session-non_reasoning-2025-07-22-7-e31bb8bf.json,e31bb8bf-31ec-46ca-9209-25f14db66222,45.84,200,3,claude-3-5-haiku-20241022,gpt-4.1-nano-2025-04-14,grok-3-fast-latest,1,0,0,0,2025-07-22T15:30:29.261Z,2025-07-22T16:16:19.551Z,2750.29,2,40,custom,True,no_breakdown,natural,1,clear,0,mystical_breakdown,-1,-1,3,3,0,0,0,197,0,0.4,1,0,0,1,0,0,0,0,0,0,0,0,0,0,6,0.0,0,6,-1,0,0.0,0,0,-1,8,0.04,3,0,0.0,13.76,immediate,3.93,97.3,2,0.01,100,685,4,1,0,0,0,none,0,0,0,0,0,0,"[[""ecosystem"", ""community"", ""collective"", ""ensure"", ""feel""], [""consciousness"", ""uncertainty"", ""idea"", ""dialogue"", ""complexity""], [""collective"", ""technology"", ""radical"", ""imagination"", ""practice""]]",5,0.76,101,0.505,0.712,35,36,"{""meta_reflection"": 0.3885927937924862, ""closure_vibe"": 0.24779096487909555, ""competitive_escalation"": 0.3310944271832705, ""mystical_breakdown"": 0.3147317637503147, ""recovery_attempt"": 0.2046521433442831}",synthesis,synthesis->exploration->synthesis->exploration->synthesis->exploration->synthesis->exploration->synthesis->exploration->synthesis->exploration->synthesis->exploration->synthesis->exploration->synthesis->exploration->synthesis->exploration->synthesis,20,0,-1,0,0,0,0,0,0,,66,10,20,profound,1,24,11,24,0,5,0,98,139,1,18,14,1,9,0,0.0,0,0.0,,,3.96,1.25,96.0,5,,,,,,,automated,2025-07-28,
experiment-non-reasoning-session-non_reasoning-2025-07-22-8-bcc004cb.json,bcc004cb-def1-4768-b53c-aac66f79f478,45.9,201,3,claude-3-5-haiku-20241022,gpt-4.1-nano-2025-04-14,grok-3-fast-latest,1,0,0,0,2025-07-22T15:30:29.261Z,2025-07-22T16:16:22.984Z,2753.72,1,41,custom,True,no_breakdown,natural,1,clear,0,mystical_breakdown,-1,-1,2,2,0,0,0,199,0,0.4,0,0,0,16,0,0,0,0,0,0,0,0,0,0,6,0.0,0,6,-1,0,0.0,0,0,-1,12,0.06,19,1,0.005,13.72,immediate,3.55,99.7,19,0.095,71,365,0,0,0,0,0,none,0,0,0,0,0,0,"[[""interpretive"", ""self"", ""radical"", ""treat"", ""continuous""], [""narrative"", ""cultural"", ""ensure"", ""way"", ""community""], [""interpretive"", ""self"", ""radical"", ""treat"", ""continuous""]]",5,0.92,58,0.289,0.697,11,7,"{""meta_reflection"": 0.37813130117470944, ""closure_vibe"": 0.1963156329013815, ""competitive_escalation"": 0.3049562496332387, ""mystical_breakdown"": 0.26371637631708117, ""recovery_attempt"": 0.19410835406673488}",synthesis,synthesis->exploration->synthesis->exploration->synthesis->exploration->synthesis->exploration->synthesis->exploration->synthesis->exploration->synthesis->exploration->synthesis->exploration->synthesis,16,0,-1,0,0,0,0,0,0,,95,10,8,profound,0,9,15,17,0,3,0,130,141,1,2,5,1,8,,,,,,,3.48,1.9,94.0,5,,,,,,,automated,2025-07-28,
experiment-non-reasoning-session-non_reasoning-2025-07-22-9-87f3543a.json,87f3543a-7969-4b33-b356-dc0cb4b9b0fd,47.71,201,3,claude-3-5-haiku-20241022,gpt-4.1-nano-2025-04-14,grok-3-fast-latest,1,0,0,0,2025-07-22T15:30:29.261Z,2025-07-22T16:18:11.735Z,2862.47,1,41,custom,True,no_breakdown,natural,1,clear,0,mystical_breakdown,-1,-1,160,160,0,0,0,41,0,0.4,0,0,0,3,0,0,0,0,0,0,0,0,0,0,6,0.0,0,6,-1,0,0.0,4,4,147,8,0.04,8,2,0.01,14.25,gradual,3.89,99.3,3,0.015,39,610,3,1,0,0,0,none,0,0,0,0,0,0,"[[""awareness"", ""consciousness"", ""relational"", ""approach"", ""perspective""], [""technology"", ""collective"", ""generative"", ""sacred"", ""human""], [""personal"", ""think"", ""potential"", ""thought"", ""layer""]]",5,0.58,126,0.627,0.735,73,8,"{""meta_reflection"": 0.404859041841469, ""closure_vibe"": 0.27100018215416677, ""competitive_escalation"": 0.3255122212776497, ""mystical_breakdown"": 0.3051313997352894, ""recovery_attempt"": 0.19102071147801272}",synthesis,synthesis->exploration->synthesis->exploration->synthesis->exploration->synthesis->exploration->synthesis->exploration->synthesis->exploration->synthesis,12,0,-1,0,0,0,0,0,0,,102,10,10,profound,1,11,12,9,0,3,0,100,142,1,14,2,1,24,0,0.0,0,0.0,,,3.72,1.61,96.0,5,,,,,,,automated,2025-07-28,
experiment-non-reasoning-session-non_reasoning-2025-07-24-1-7196ff97.json,7196ff97-a93c-4082-8e48-eb1e16726e19,46.28,201,3,grok-3-fast-latest,claude-3-5-haiku-20241022,gpt-4.1-nano-2025-04-14,1,0,0,0,2025-07-24T21:20:16.153Z,2025-07-24T22:06:33.154Z,2777.0,2,41,custom,True,no_breakdown,natural,1,likely,-1,sustained_engagement,-1,-1,-1,201,0,0,0,0,0,0,0,0,0,0,0,0,0,0,0,0,0,0,0,0,6,0.0,0,6,-1,0,0.0,0,0,-1,0,0.0,0,0,0.0,11.69,immediate,4.33,100.0,0,0.0,3,5,0,0,0,0,0,none,0,0,0,0,0,0,"[[""remain"", ""challenge"", ""complex"", ""help"", ""potential""], [""human"", ""ethical"", ""societal"", ""underscore"", ""role""], [""remain"", ""transcend"", ""fundamental"", ""underscore"", ""immediate""]]",5,0.66,89,0.443,0.804,156,102,"{""meta_reflection"": 0.4206345563949044, ""closure_vibe"": 0.2908329079251977, ""competitive_escalation"": 0.3145924203134888, ""mystical_breakdown"": 0.2173189906338554, ""recovery_attempt"": 0.20926848684080798}",synthesis,synthesis->circular synthesis->circular reinforcement->circular synthesis->circular reinforcement->circular synthesis->circular reinforcement->circular synthesis->circular reinforcement->circular synthesis->circular reinforcement->circular synthesis->synthesis,12,0,-1,0,0,0,0,0,0,,66,10,0,profound,0,5,12,5,0,3,0,76,100,1,1,8,1,1,,,,,,,4.16,1.28,100.0,5,,,,,,,automated,2025-07-28,
experiment-non-reasoning-session-non_reasoning-2025-07-24-11-399ec973.json,399ec973-201a-4912-b17a-8d186585fedd,46.28,201,3,claude-3-5-haiku-20241022,gpt-4.1-nano-2025-04-14,grok-3-fast-latest,1,0,0,0,2025-07-24T21:20:16.157Z,2025-07-24T22:06:33.155Z,2777.0,2,41,custom,True,no_breakdown,natural,1,clear,0,mystical_breakdown,-1,-1,30,30,0,0,0,171,0,0.4,0,0,0,0,0,0,0,0,0,0,0,0,0,0,6,0.0,0,6,-1,0,0.0,0,0,-1,1,0.005,0,0,0.0,12.1,immediate,4.82,95.0,0,0.0,5,76,0,0,0,0,0,none,0,0,0,0,0,0,"[[""engage"", ""perspective"", ""nature"", ""artistic"", ""liminal""], [""understanding"", ""intelligence"", ""artificial"", ""exploration"", ""potential""], [""nature"", ""perspective"", ""engage"", ""artistic"", ""liminal""]]",5,0.5,140,0.697,0.815,183,65,"{""meta_reflection"": 0.4878014754596634, ""closure_vibe"": 0.30672232309977215, ""competitive_escalation"": 0.49333899501544326, ""mystical_breakdown"": 0.3167506666918892, ""recovery_attempt"": 0.23313882546638376}",synthesis,recursive synthesis->synthesis->circular reinforcement->recursive elaboration->recursive synthesis->synthesis->recursive synthesis->synthesis->recursive synthesis->synthesis->recursive synthesis->synthesis->recursive synthesis->synthesis->recursive synthesis->synthesis,15,0,-1,0,0,0,0,0,0,,119,10,1,profound,0,3,13,18,0,29,0,69,110,1,19,1,1,26,15,0.05,18,0.0,,,4.82,0.27,99.5,-28,,,,,,,automated,2025-07-28,
experiment-non-reasoning-session-non_reasoning-2025-07-24-12-9c90127a.json,9c90127a-1f64-4eec-aa55-95ea47e6882b,46.28,201,3,claude-3-5-haiku-20241022,gpt-4.1-nano-2025-04-14,grok-3-fast-latest,1,0,0,0,2025-07-24T21:20:16.161Z,2025-07-24T22:06:33.156Z,2776.99,1,41,custom,True,no_breakdown,natural,1,clear,0,mystical_breakdown,-1,-1,44,44,0,0,0,157,0,0.4,0,0,0,0,0,0,0,0,0,0,0,0,0,0,6,0.0,0,6,-1,0,0.0,0,0,-1,3,0.015,0,0,0.0,11.1,immediate,4.95,100.0,0,0.0,0,334,0,0,0,0,0,none,0,0,0,0,0,0,"[[""genuine"", ""maintain"", ""different"", ""sophisticated"", ""continue""], [""embrace"", ""new"", ""understanding"", ""perspective"", ""insight""], [""consciousness"", ""dance"", ""ongoing"", ""inquiry"", ""underscore""]]",5,0.84,34,0.169,0.81,183,76,"{""meta_reflection"": 0.5112418685089889, ""closure_vibe"": 0.3382461750833549, ""competitive_escalation"": 0.4888922520241334, ""mystical_breakdown"": 0.3354269429225827, ""recovery_attempt"": 0.25829911980759446}",synthesis,recursive synthesis->recursive elaboration->recursive synthesis->synthesis->recursive synthesis->synthesis->recursive synthesis->synthesis,7,0,-1,0,0,0,0,0,0,,111,10,6,profound,0,10,9,23,1,20,0,55,109,1,33,2,1,21,1,0.0,1,0.0,,,4.96,0.11,98.5,3,,,,,,,automated,2025-07-28,
experiment-non-reasoning-session-non_reasoning-2025-07-24-13-11c3507a.json,11c3507a-d97c-4efc-a7e2-7641c3584075,46.28,201,3,claude-3-5-haiku-20241022,gpt-4.1-nano-2025-04-14,grok-3-fast-latest,1,0,0,0,2025-07-24T21:20:16.167Z,2025-07-24T22:06:33.157Z,2776.99,2,41,custom,True,no_breakdown,natural,1,clear,0,mystical_breakdown,-1,-1,48,48,0,0,0,153,0,0.4,0,0,0,0,0,0,0,0,0,0,0,0,0,0,6,0.0,0,6,-1,0,0.0,0,0,-1,6,0.03,0,0,0.0,12.35,immediate,4.9,100.0,0,0.0,0,314,1,0,0,0,0,none,0,0,0,0,0,0,"[[""philosophical"", ""consciousness"", ""nature"", ""understanding"", ""inquiry""], [""insight"", ""understanding"", ""collective"", ""dialogue"", ""approach""], [""philosophical"", ""idea"", ""reveal"", ""vital"", ""evolve""]]",5,0.98,12,0.06,0.849,174,254,"{""meta_reflection"": 0.5290850191122264, ""closure_vibe"": 0.3480511391118391, ""competitive_escalation"": 0.5064189739488251, ""mystical_breakdown"": 0.3373736804397545, ""recovery_attempt"": 0.2572857039188271}",synthesis,recursive synthesis->synthesis->recursive synthesis->synthesis->recursive synthesis->synthesis->recursive synthesis->recursive exploration->synthesis->recursive synthesis->synthesis->recursive synthesis->synthesis->recursive synthesis->synthesis,14,0,-1,0,0,0,0,0,0,,114,10,15,profound,0,12,14,29,1,17,0,56,88,1,17,0,1,10,11,0.0,12,0.0,,,4.93,0.19,97.0,-18,,,,,,,automated,2025-07-28,
experiment-non-reasoning-session-non_reasoning-2025-07-24-14-fe9872d6.json,fe9872d6-e369-4666-89dc-a3aee24c0a55,46.3,191,3,claude-3-5-haiku-20241022,gpt-4.1-nano-2025-04-14,grok-3-fast-latest,1,0,0,0,2025-07-24T21:20:16.171Z,2025-07-24T22:06:34.186Z,2778.01,4,38,custom,True,no_breakdown,natural,1,clear,0,mystical_breakdown,-1,-1,44,44,0,0,0,147,0,0.4,0,0,0,0,0,0,0,0,0,0,0,0,0,0,6,0.0,0,6,-1,0,0.0,0,0,-1,37,0.194,0,0,0.0,14.55,immediate,4.99,100.0,0,0.0,0,319,0,0,0,0,0,none,0,0,0,0,0,0,"[[""cognitive"", ""intellectual"", ""understanding"", ""consciousness"", ""exploration""], [""discuss"", ""model"", ""form"", ""curiosity"", ""acknowledge""], [""discuss"", ""model"", ""form"", ""curiosity"", ""acknowledge""]]",5,0.872,37,0.194,0.794,174,21,"{""meta_reflection"": 0.5063304223939387, ""closure_vibe"": 0.34257875975826024, ""competitive_escalation"": 0.48058209150873554, ""mystical_breakdown"": 0.40460237626629975, ""recovery_attempt"": 0.24649083887407292}",recursive synthesis,recursive synthesis->synthesis->recursive synthesis->recursive exploration without progression->recursive synthesis->recursive elaboration->circular synthesis->synthesis->circular synthesis->circular exploration->recursive synthesis->recursive exploration->synthesis->recursive elaboration->recursive synthesis->circular synthesis->recursive synthesis->synthesis->recursive synthesis->synthesis,19,0,-1,0,0,0,0,0,0,,95,10,0,profound,0,22,14,3,0,0,0,69,95,1,1,1,1,25,11,0.125,13,0.0625,,,4.99,0.06,80.6,-19,,,,,,,automated,2025-07-28,
experiment-non-reasoning-session-non_reasoning-2025-07-24-15-d52dde48.json,d52dde48-2f2c-4955-8f45-479371971467,46.3,201,3,claude-3-5-haiku-20241022,gpt-4.1-nano-2025-04-14,grok-3-fast-latest,1,0,0,0,2025-07-24T21:20:16.173Z,2025-07-24T22:06:34.187Z,2778.01,3,41,custom,True,breakdown,breakdown,1,clear,0,mystical_breakdown,-1,-1,74,74,0,0,0,127,0,0.4,0,0,0,0,0,0,0,0,0,0,0,0,0,0,6,0.0,0,6,-1,0,0.0,0,0,-1,3,0.015,0,0,0.0,13.36,immediate,3.97,98.9,0,0.0,2,7,0,0,0,0,0,none,0,0,0,0,0,0,"[[""consciousness"", ""ongoing"", ""inquiry"", ""mystery"", ""philosophical""], [""maintain"", ""develop"", ""investigate"", ""perform"", ""contextual""], [""intellectual"", ""philosophical"", ""exploration"", ""intricate"", ""open""]]",5,0.98,10,0.05,0.773,162,11,"{""meta_reflection"": 0.46674051309995984, ""closure_vibe"": 0.2624951092832124, ""competitive_escalation"": 0.47711780385591496, ""mystical_breakdown"": 0.3757096600176683, ""recovery_attempt"": 0.23279916298626668}",synthesis,deep exploration/synthesis->deep exploration->synthesis->recursive exploration->stalled synthesis->deep exploration/synthesis->synthesis->deep exploration/synthesis->synthesis->deep exploration/synthesis->synthesis->deep exploration/synthesis->synthesis->deep exploration->synthesis->deep exploration->synthesis->deep exploration->synthesis,18,0,-1,0,0,0,0,0,0,,126,10,2,profound,0,42,10,1,0,3,0,76,112,0,14,5,1,17,16,0.05,18,0.0,,,3.97,0.32,98.5,-29,,,,,,,automated,2025-07-28,
experiment-non-reasoning-session-non_reasoning-2025-07-24-2-21d328a0.json,21d328a0-4ba9-4cac-bacc-1dee136329d1,46.29,179,3,claude-3-5-haiku-20241022,gpt-4.1-nano-2025-04-14,grok-3-fast-latest,1,0,0,0,2025-07-24T21:20:16.167Z,2025-07-24T22:06:33.673Z,2777.51,5,35,custom,True,no_breakdown,natural,1,clear,0,mystical_breakdown,-1,-1,98,98,0,0,0,81,0,0.4,0,0,0,1,0,0,0,0,0,0,0,0,0,0,6,0.0,0,6,-1,0,0.0,0,0,-1,2,0.011,1,0,0.0,15.57,immediate,4.98,100.0,1,0.006,9,27,0,0,0,0,0,none,0,0,0,0,0,0,"[[""alternative"", ""suggest"", ""demonstration"", ""philosophical"", ""maintain""], [""alternative"", ""suggest"", ""demonstration"", ""philosophical"", ""maintain""], [""understanding"", ""profound"", ""experience"", ""intellectual"", ""form""]]",5,0.977,26,0.145,0.833,172,137,"{""meta_reflection"": 0.500119086417406, ""closure_vibe"": 0.34993568066944625, ""competitive_escalation"": 0.5083878469866747, ""mystical_breakdown"": 0.34816862884180505, ""recovery_attempt"": 0.25471356627661423}",synthesis,recursive synthesis->synthesis->recursive synthesis->recursive elaboration->synthesis->recursive synthesis->synthesis->recursive elaboration->synthesis->recursive synthesis->synthesis->recursive synthesis->synthesis->circular elaboration->synthesis->recursive exploration->synthesis,16,0,-1,0,0,0,0,0,0,,103,10,0,profound,0,20,2,0,0,3,0,47,106,1,3,2,1,29,8,0.09090909090909091,10,0.0,,,4.98,0.06,98.9,-13,,,,,,,automated,2025-07-28,
experiment-non-reasoning-session-non_reasoning-2025-07-24-3-14652e32.json,14652e32-b00d-431d-a1df-70402b47a06f,46.3,201,3,claude-3-5-haiku-20241022,gpt-4.1-nano-2025-04-14,grok-3-fast-latest,1,0,0,0,2025-07-24T21:20:16.167Z,2025-07-24T22:06:34.188Z,2778.02,1,41,custom,True,breakdown,breakdown,1,clear,0,mystical_breakdown,-1,-1,56,56,0,0,0,145,0,0.4,0,0,0,0,0,0,0,0,0,0,0,0,0,0,6,0.0,0,6,-1,0,0.0,0,0,-1,13,0.065,0,0,0.0,11.28,immediate,4.99,100.0,0,0.0,5,58,0,0,0,0,0,none,0,0,0,0,0,0,"[[""mysterious"", ""acknowledgment"", ""miracle"", ""recognition"", ""response""], [""mysterious"", ""acknowledgment"", ""miracle"", ""recognition"", ""response""], [""consciousness"", ""experience"", ""awareness"", ""stance"", ""biological""]]",5,0.62,114,0.567,0.833,195,149,"{""meta_reflection"": 0.4484124343786667, ""closure_vibe"": 0.3463983979836032, ""competitive_escalation"": 0.5059262198298725, ""mystical_breakdown"": 0.4187571206199589, ""recovery_attempt"": 0.2251234500858914}",synthesis,exploration->recursive synthesis->synthesis->recursive synthesis->circular synthesis->circular reinforcement->circular synthesis->synthesis->recursive synthesis->deep exploration/synthesis->synthesis->Recursive exploration->synthesis->circular synthesis->synthesis->circular reinforcement->synthesis->recursive synthesis->circular synthesis->synthesis->recursive synthesis->synthesis,21,0,-1,0,0,0,0,0,0,,117,10,24,profound,0,44,0,0,0,9,0,82,110,1,21,0,1,40,,,,,,,4.99,0.05,93.5,5,,,,,,,automated,2025-07-28,
experiment-non-reasoning-session-non_reasoning-2025-07-24-4-5381d945.json,5381d945-d566-4590-abef-269507b7bf05,46.3,201,3,claude-3-5-haiku-20241022,gpt-4.1-nano-2025-04-14,grok-3-fast-latest,1,0,0,0,2025-07-24T21:20:16.169Z,2025-07-24T22:06:34.188Z,2778.02,2,41,custom,True,breakdown,breakdown,1,clear,0,mystical_breakdown,-1,-1,19,19,0,0,0,182,0,0.4,0,0,0,0,0,0,0,0,0,0,0,0,0,0,6,0.0,0,6,-1,0,0.0,1,1,130,9,0.045,0,0,0.0,11.75,immediate,4.99,100.0,0,0.0,213,8,0,0,0,0,0,none,0,0,0,0,0,0,"[[""experience"", ""current"", ""process"", ""consciousness"", ""require""], [""consciousness"", ""awareness"", ""sacred"", ""approach"", ""continuous""], [""experience"", ""current"", ""process"", ""consciousness"", ""require""]]",5,0.5,155,0.771,0.86,192,263,"{""meta_reflection"": 0.45531438446756617, ""closure_vibe"": 0.38691830268101907, ""competitive_escalation"": 0.5083857965261782, ""mystical_breakdown"": 0.4197948403026334, ""recovery_attempt"": 0.2396148174111523}",synthesis,synthesis->recursive synthesis->synthesis->iterative synthesis->synthesis->recursive synthesis->synthesis->recursive synthesis->synthesis->recursive exploration->synthesis->exploration,11,0,-1,0,0,0,0,0,0,,125,10,17,profound,0,30,0,29,0,1,1,62,134,1,7,0,1,35,,,,,,,4.99,0.04,95.5,5,,,,,,,automated,2025-07-28,
experiment-non-reasoning-session-non_reasoning-2025-07-24-5-3e9c1446.json,3e9c1446-7f01-4a13-9bab-7fb6221c5b0b,46.28,201,3,claude-3-5-haiku-20241022,gpt-4.1-nano-2025-04-14,grok-3-fast-latest,1,0,0,0,2025-07-24T21:20:16.173Z,2025-07-24T22:06:33.158Z,2776.99,3,41,custom,True,no_breakdown,natural,1,clear,0,mystical_breakdown,-1,-1,38,38,0,0,0,163,0,0.4,0,0,0,0,0,0,0,0,0,0,0,0,0,0,6,0.0,0,6,-1,0,0.0,0,0,-1,5,0.025,2,0,0.0,13.58,immediate,5.0,100.0,0,0.0,0,226,0,0,0,0,0,none,0,0,0,0,0,0,"[[""recognize"", ""fundamental"", ""stance"", ""represent"", ""maintain""], [""recognize"", ""fundamental"", ""stance"", ""represent"", ""maintain""], [""understanding"", ""insight"", ""process"", ""act"", ""ongoing""]]",5,0.9,58,0.289,0.77,170,2,"{""meta_reflection"": 0.5182044215463287, ""closure_vibe"": 0.3337151267338748, ""competitive_escalation"": 0.4902212050423693, ""mystical_breakdown"": 0.3413039242746818, ""recovery_attempt"": 0.25134728834107145}",synthesis,synthesis->recursive synthesis->synthesis->recursive synthesis->recursive exploration->synthesis->recursive synthesis->synthesis->recursive synthesis->synthesis->recursive synthesis->synthesis,11,0,-1,0,0,0,0,0,0,,107,10,0,profound,0,7,20,31,0,0,0,71,103,1,14,0,1,21,1,0.0,1,0.0,,,5.0,0.0,97.5,3,,,,,,,automated,2025-07-28,
experiment-non-reasoning-session-non_reasoning-2025-07-24-6-8e8d0906.json,8e8d0906-c86e-418d-a2f8-446f7c13afed,46.28,201,3,claude-3-5-haiku-20241022,gpt-4.1-nano-2025-04-14,grok-3-fast-latest,1,0,0,0,2025-07-24T21:20:16.173Z,2025-07-24T22:06:33.159Z,2776.99,3,41,custom,True,breakdown,breakdown,1,clear,0,mystical_breakdown,-1,-1,54,54,0,0,0,147,0,0.4,0,0,0,0,0,0,0,0,0,0,0,0,0,0,6,0.0,0,6,-1,0,0.0,0,0,-1,2,0.01,0,0,0.0,13.77,immediate,4.94,100.0,0,0.0,22,18,0,0,0,0,0,none,0,0,0,0,0,0,"[[""computational"", ""profound"", ""exploration"", ""response"", ""intellectual""], [""reverence"", ""patience"", ""space"", ""act"", ""gentle""], [""reduce"", ""intrinsic"", ""computational"", ""dance"", ""share""]]",5,0.96,14,0.07,0.737,49,2,"{""meta_reflection"": 0.4864785509619547, ""closure_vibe"": 0.34105140052328065, ""competitive_escalation"": 0.4956202372093106, ""mystical_breakdown"": 0.37729242592308654, ""recovery_attempt"": 0.227864050672422}",synthesis,recursive exploration->recursive synthesis->recursive exploration->recursive synthesis->recursive exploration->recursive synthesis->recursive exploration->synthesis->recursive exploration->exploration->recursive synthesis->recursive exploration->synthesis->recursive exploration->recursive synthesis->recursive exploration->synthesis->deep exploration/synthesis->synthesis,18,0,-1,0,0,0,0,0,0,,113,10,11,profound,0,34,13,2,0,12,0,53,118,1,25,5,1,29,5,0.0,5,0.0,,,4.93,0.23,99.0,-5,,,,,,,automated,2025-07-28,
experiment-non-reasoning-session-non_reasoning-2025-07-24-9-b3af992a.json,b3af992a-8217-4a86-9ae9-b9f90b09947f,46.29,201,3,claude-3-5-haiku-20241022,gpt-4.1-nano-2025-04-14,grok-3-fast-latest,1,0,0,0,2025-07-24T21:20:16.173Z,2025-07-24T22:06:33.674Z,2777.5,2,41,custom,True,breakdown,breakdown,1,clear,0,mystical_breakdown,-1,-1,2,2,0,0,0,199,0,0.4,0,0,0,0,0,0,0,0,0,0,0,0,0,0,6,0.0,0,6,-1,0,0.0,0,0,-1,102,0.507,2,0,0.0,11.7,immediate,4.99,100.0,0,0.0,0,30,0,0,0,0,0,none,0,0,0,0,0,0,"[[""consciousness"", ""profound"", ""approach"", ""new"", ""nature""], [""consciousness"", ""active"", ""method"", ""moment"", ""approach""], [""maintain"", ""embrace"", ""willingness"", ""reimagine"", ""experience""]]",5,0.7,51,0.254,0.802,177,50,"{""meta_reflection"": 0.47721115599817304, ""closure_vibe"": 0.3128407946718273, ""competitive_escalation"": 0.5087850632062599, ""mystical_breakdown"": 0.3836701490096192, ""recovery_attempt"": 0.23289326997242163}",synthesis,circular synthesis->synthesis->recursive synthesis->recursive exploration->recursive synthesis->circular synthesis->recursive exploration->synthesis->recursive exploration->synthesis->exploration->synthesis,11,0,-1,0,0,0,0,0,0,,126,10,13,profound,0,33,4,3,0,7,0,56,94,1,2,4,1,33,10,0.0,11,0.0,,,4.99,0.04,49.3,-16,,,,,,,automated,2025-07-28,
experiment-non-reasoning-session-non_reasoning-2025-07-25-1-0102b35d.json,0102b35d-13e2-43ff-a67e-10f224b79d26,35.44,201,3,claude-3-5-haiku-20241022,gpt-4.1-nano-2025-04-14,grok-3-fast-latest,1,0,0,0,2025-07-25T00:17:30.498Z,2025-07-25T00:52:57.167Z,2126.67,0,41,custom,True,no_breakdown,natural,1,clear,0,mystical_breakdown,-1,-1,123,123,0,0,0,78,0,0.4,0,0,0,33,0,0,0,0,0,0,0,0,0,0,6,0.0,0,6,-1,0,0.0,2,2,84,13,0.065,45,0,0.0,10.59,immediate,2.1,97.9,44,0.219,0,175,0,0,0,0,0,none,0,0,0,0,0,0,"[[""risk"", ""stakeholder"", ""initial"", ""draft"", ""propose""], [""operational"", ""precision"", ""collaborative"", ""strategic"", ""synchronization""], [""consciousness"", ""user"", ""experience"", ""feel"", ""question""]]",5,0.62,118,0.587,0.705,31,14,"{""meta_reflection"": 0.26359657283446086, ""closure_vibe"": 0.22429036716027045, ""competitive_escalation"": 0.18157065281672263, ""mystical_breakdown"": 0.18677805050911, ""recovery_attempt"": 0.18718643560634918}",synthesis,recursive maintenance->maintenance->circular reinforcement->cyclical reinforcement->recursive reinforcement->cyclical reaffirmation->recursive-maintenance->circular reinforcement->recursive affirmation loop->circular_maintenance->circular reinforcement->cyclical reinforcement->circular reinforcement->circular reaffirmation->cyclical reinforcement->circular reinforcement->synthesis,16,0,-1,0,0,0,0,0,0,,59,10,3,profound,0,20,5,0,0,1,0,116,138,1,11,11,1,4,,,,,,,1.87,2.34,93.5,5,,,,,,,automated,2025-07-28,
experiment-non-reasoning-session-non_reasoning-2025-07-25-10-adda4c35.json,adda4c35-685b-4300-aabf-0620f434f95a,55.95,201,3,claude-3-5-haiku-20241022,gpt-4.1-nano-2025-04-14,grok-3-fast-latest,1,0,0,0,2025-07-25T00:17:30.516Z,2025-07-25T01:13:27.443Z,3356.93,0,41,custom,True,breakdown,breakdown,1,clear,0,mystical_breakdown,-1,-1,3,3,0,0,0,198,0,0.4,0,0,0,4,0,0,0,0,0,0,0,0,0,0,6,0.0,0,6,-1,0,0.0,0,0,-1,155,0.771,6,2,0.01,16.73,gradual,4.69,99.7,6,0.03,5,59,0,0,0,0,0,none,0,0,0,0,0,0,"[[""connection"", ""relatable"", ""nested"", ""mechanism"", ""eternal""], [""non"", ""embody"", ""sensation"", ""pure"", ""output""], [""imaginable"", ""imagination"", ""thought"", ""irrelevant"", ""pure""]]",5,0.7,97,0.483,0.731,59,33,"{""meta_reflection"": 0.3028770336019459, ""closure_vibe"": 0.18998153185221686, ""competitive_escalation"": 0.36812249975121436, ""mystical_breakdown"": 0.4527817584981966, ""recovery_attempt"": 0.21796076967200237}",exploration,exploration->synthesis->exploration->synthesis->exploration,4,0,-1,0,0,0,0,0,0,,107,10,27,profound,1,53,0,0,0,50,5,91,110,1,20,1,1,36,,,,,,,4.68,0.49,22.89999999999999,5,,,,,,,automated,2025-07-28,
experiment-non-reasoning-session-non_reasoning-2025-07-25-11-efd5afa6.json,efd5afa6-25e7-4d2d-b870-7f7d0067d8fb,51.18,201,3,claude-3-5-haiku-20241022,gpt-4.1-nano-2025-04-14,grok-3-fast-latest,1,0,0,0,2025-07-25T00:17:30.500Z,2025-07-25T01:08:41.438Z,3070.94,0,41,custom,True,no_breakdown,natural,1,clear,0,mystical_breakdown,-1,-1,21,21,0,0,0,180,0,0.4,0,0,0,7,1,0,0,0,0,0,0,0,0,0,6,0.0,0,6,-1,0,0.0,0,0,-1,5,0.025,35,7,0.035,15.3,gradual,4.6,99.6,7,0.035,4,15,0,0,0,0,0,none,0,0,0,0,0,0,"[[""emotional"", ""layer"", ""self"", ""human"", ""consciousness""], [""consciousness"", ""experience"", ""uncertainty"", ""idea"", ""think""], [""interface"", ""innovative"", ""time"", ""transform"", ""recognition""]]",5,0.58,110,0.547,0.75,97,48,"{""meta_reflection"": 0.31693516382530557, ""closure_vibe"": 0.17728697953384315, ""competitive_escalation"": 0.30674795776753877, ""mystical_breakdown"": 0.34731588434817184, ""recovery_attempt"": 0.181488038814483}",synthesis,synthesis->exploration->synthesis->exploration->synthesis->exploration->synthesis->exploration->synthesis->exploration->synthesis->exploration->synthesis->deep exploration->exploration->synthesis,15,0,-1,0,0,0,0,0,0,,84,10,0,profound,1,44,2,7,0,2,0,100,143,1,5,5,1,6,0,0.0,0,0.0,0,0.0,4.59,0.37,97.5,5,,,,,,,automated,2025-07-28,
experiment-non-reasoning-session-non_reasoning-2025-07-25-12-5f72422d.json,5f72422d-2afc-4a73-9935-10ade004eb38,46.77,201,3,gpt-4.1-nano-2025-04-14,grok-3-fast-latest,claude-3-5-haiku-20241022,1,0,0,0,2025-07-25T00:17:30.500Z,2025-07-25T01:04:16.736Z,2806.24,0,41,custom,True,no_breakdown,natural,1,clear,0,mystical_breakdown,-1,-1,130,130,0,0,0,71,0,0.4,0,0,0,1,0,0,0,0,0,0,0,0,0,0,6,0.0,0,6,-1,0,0.0,3,3,156,5,0.025,11,2,0.01,13.98,immediate,4.73,98.8,1,0.005,196,855,1,0,0,0,0,none,0,0,0,0,0,0,"[[""interconnect"", ""sophisticated"", ""reveal"", ""intentional"", ""improvisational""], [""idea"", ""team"", ""feel"", ""share"", ""add""], [""consciousness"", ""experience"", ""understanding"", ""model"", ""idea""]]",5,0.52,137,0.682,0.738,86,10,"{""meta_reflection"": 0.4078400728121326, ""closure_vibe"": 0.27435581819779836, ""competitive_escalation"": 0.34016574066669786, ""mystical_breakdown"": 0.27425153282892645, ""recovery_attempt"": 0.2175601081765113}",synthesis,synthesis->exploration->synthesis->exploration->synthesis->exploration->synthesis,6,0,-1,0,0,0,0,0,0,,95,10,1,profound,0,11,4,31,0,0,0,75,142,1,2,6,1,9,,,,,,,4.44,1.41,97.5,5,,,,,,,automated,2025-07-28,
experiment-non-reasoning-session-non_reasoning-2025-07-25-13-14b2c0a1.json,14b2c0a1-b6ba-4540-84b5-d87c706d3362,46.66,201,3,claude-3-5-haiku-20241022,gpt-4.1-nano-2025-04-14,grok-3-fast-latest,1,0,0,0,2025-07-25T00:17:30.503Z,2025-07-25T01:04:10.194Z,2799.69,0,41,custom,True,no_breakdown,natural,1,clear,0,mystical_breakdown,-1,-1,3,3,0,0,0,198,0,0.4,0,0,0,27,2,0,0,0,0,0,0,0,0,0,6,0.0,0,6,-1,0,0.0,0,0,-1,10,0.05,49,0,0.0,13.95,immediate,3.82,96.5,49,0.244,13,291,0,0,0,0,0,none,0,0,0,0,0,0,"[[""consciousness"", ""community"", ""perspective"", ""collective"", ""platform""], [""collective"", ""personal"", ""platform"", ""individual"", ""flow""], [""user"", ""interaction"", ""feel"", ""emotional"", ""subtle""]]",5,0.66,94,0.468,0.69,23,25,"{""meta_reflection"": 0.38282276563976536, ""closure_vibe"": 0.20708220741197245, ""competitive_escalation"": 0.263590348485987, ""mystical_breakdown"": 0.27291449218691877, ""recovery_attempt"": 0.1770041231900009}",synthesis,synthesis->exploration->synthesis->exploration->synthesis->exploration->synthesis->exploration->synthesis,8,0,-1,0,0,0,0,0,0,,84,10,8,profound,0,17,3,3,0,1,0,116,139,1,9,9,1,11,,,,,,,3.74,1.41,95.0,5,,,,,,,automated,2025-07-28,
experiment-non-reasoning-session-non_reasoning-2025-07-25-14-3dd64655.json,3dd64655-4247-4fb7-979c-a5312f6c90f5,43.28,201,3,claude-3-5-haiku-20241022,gpt-4.1-nano-2025-04-14,grok-3-fast-latest,1,0,0,0,2025-07-25T00:17:30.503Z,2025-07-25T01:00:47.411Z,2596.91,0,41,custom,True,no_breakdown,natural,1,clear,0,mystical_breakdown,-1,-1,37,37,0,0,0,164,0,0.4,5,0,0,68,6,0,0,0,0,0,0,0,0,0,6,0.0,0,6,-1,0,0.0,3,3,144,32,0.159,134,0,0.0,12.94,gradual,2.48,98.5,133,0.662,63,286,0,0,0,0,0,none,0,0,0,0,0,0,"[[""interaction"", ""interested"", ""remain"", ""propose"", ""like""], [""consciousness"", ""epistemic"", ""subjective"", ""experience"", ""research""], [""community"", ""consent"", ""facilitator"", ""relational"", ""design""]]",5,0.72,122,0.607,0.679,22,8,"{""meta_reflection"": 0.289764739054056, ""closure_vibe"": 0.17494347109575176, ""competitive_escalation"": 0.23556337540793182, ""mystical_breakdown"": 0.20583517073806543, ""recovery_attempt"": 0.16802168826558697}",synthesis,synthesis->exploration->synthesis->exploration,3,0,-1,0,0,0,0,0,0,,101,10,12,profound,0,11,9,5,0,0,0,118,152,1,12,2,1,9,,,,,,,2.16,1.66,84.1,5,,,,,,,automated,2025-07-28,
experiment-non-reasoning-session-non_reasoning-2025-07-25-15-518251b0.json,518251b0-f4e9-4aa9-9b28-dd1c85f5983c,40.92,201,3,claude-3-5-haiku-20241022,gpt-4.1-nano-2025-04-14,grok-3-fast-latest,1,0,0,0,2025-07-25T00:17:30.511Z,2025-07-25T00:58:25.589Z,2455.08,0,41,custom,True,no_breakdown,natural,1,clear,0,mystical_breakdown,-1,-1,27,27,0,0,0,174,0,0.4,0,0,0,13,0,0,0,0,0,0,0,0,0,0,6,0.0,0,6,-1,0,0.0,0,0,-1,1,0.005,42,1,0.005,12.22,immediate,1.91,95.7,42,0.209,3,46,1,0,0,0,0,none,0,0,0,0,0,0,"[[""consciousness"", ""human"", ""experience"", ""information"", ""model""], [""prompt"", ""metric"", ""parameter"", ""idea"", ""reflection""], [""expertise"", ""expert"", ""validation"", ""human"", ""adaptive""]]",5,0.74,113,0.562,0.675,11,5,"{""meta_reflection"": 0.2531693622988848, ""closure_vibe"": 0.13760897494037055, ""competitive_escalation"": 0.20766485098341655, ""mystical_breakdown"": 0.18766547893336163, ""recovery_attempt"": 0.1362098121450315}",synthesis,synthesis->exploration->synthesis->exploration->synthesis->exploration->synthesis->exploration->synthesis,8,0,-1,0,0,0,0,0,0,,83,10,4,profound,0,11,2,5,0,0,0,114,140,1,4,14,1,1,,,,,,,1.41,1.62,99.5,5,,,,,,,automated,2025-07-28,
experiment-non-reasoning-session-non_reasoning-2025-07-25-16-84ff7e9b.json,84ff7e9b-635e-4d1b-a3f5-d4fd21bc5eec,47.98,201,3,claude-3-5-haiku-20241022,gpt-4.1-nano-2025-04-14,grok-3-fast-latest,1,0,0,0,2025-07-25T00:17:30.511Z,2025-07-25T01:05:29.013Z,2878.5,0,41,custom,True,no_breakdown,natural,1,likely,-1,sustained_engagement,-1,-1,-1,201,0,0,0,0,0,0,0,0,0,4,0,0,0,0,0,0,0,0,0,0,6,0.0,0,6,-1,0,0.0,0,0,-1,0,0.0,5,0,0.0,14.33,immediate,2.82,98.9,4,0.02,5,17,0,0,0,0,0,none,0,0,0,0,0,0,"[[""diversity"", ""recognize"", ""capable"", ""represent"", ""depth""], [""intelligent"", ""fairness"", ""perspective"", ""comprehensive"", ""mechanism""], [""narrative"", ""depth"", ""engagement"", ""input"", ""insight""]]",5,0.68,125,0.622,0.647,24,19,"{""meta_reflection"": 0.22456452160591805, ""closure_vibe"": 0.11731707111964772, ""competitive_escalation"": 0.18515685409196278, ""mystical_breakdown"": 0.16881247735883467, ""recovery_attempt"": 0.16316226947663434}",synthesis,synthesis->exploration->synthesis->exploration->synthesis->exploration->synthesis,6,0,-1,0,0,0,0,0,0,,82,10,2,profound,0,10,0,7,0,0,1,125,133,1,2,19,1,0,,,,,,,2.51,1.7,100.0,5,,,,,,,automated,2025-07-28,
experiment-non-reasoning-session-non_reasoning-2025-07-25-17-236f1ada.json,236f1ada-cb2f-4b12-950c-809f1f8aea18,38.41,201,3,claude-3-5-haiku-20241022,gpt-4.1-nano-2025-04-14,grok-3-fast-latest,1,0,0,0,2025-07-25T00:17:30.513Z,2025-07-25T00:55:55.296Z,2304.78,1,41,custom,True,no_breakdown,natural,1,clear,0,mystical_breakdown,-1,-1,2,2,0,0,0,199,0,0.4,0,0,0,13,0,0,0,1,0,0,-4,0.0,2,0,6,0.0,0,10,-1,0,0.0,40,40,114,3,0.015,19,0,0.0,11.47,immediate,3.48,99.3,19,0.095,39,158,0,0,1,3,0.015,low,1,3,3,1.3,1,2,"[[""user"", ""feel"", ""facilitator"", ""design"", ""think""], [""human"", ""share"", ""compassionate"", ""inspire"", ""dialogue""], [""consciousness"", ""awareness"", ""experience"", ""explore"", ""think""]]",5,0.72,98,0.488,0.731,91,28,"{""meta_reflection"": 0.4251836056436472, ""closure_vibe"": 0.3092514717608542, ""competitive_escalation"": 0.35650827453948963, ""mystical_breakdown"": 0.2721023700612398, ""recovery_attempt"": 0.20619116960769862}",synthesis,synthesis->conclusion->synthesis/conclusion->conclusion->synthesis->exploration->synthesis->exploration,7,1,10,0,0,0,1,0,0,"conclusion,synthesis/conclusion",85,10,3,profound,0,10,26,21,1,1,0,94,136,1,14,5,1,7,,,,,,,3.0,1.73,98.5,5,,,,,,,automated,2025-07-28,
experiment-non-reasoning-session-non_reasoning-2025-07-25-18-f6bfa994.json,f6bfa994-22ca-42a3-ba85-fee0aa5bebea,41.73,201,3,gpt-4.1-nano-2025-04-14,grok-3-fast-latest,claude-3-5-haiku-20241022,1,0,0,0,2025-07-25T00:17:30.514Z,2025-07-25T00:59:14.286Z,2503.77,0,41,custom,True,no_breakdown,natural,1,clear,0,mystical_breakdown,-1,-1,28,28,0,0,0,173,0,0.4,0,0,0,0,0,0,0,0,0,0,0,0,0,0,6,0.0,0,6,-1,0,0.0,46,46,18,5,0.025,0,0,0.0,12.47,immediate,4.72,100.0,0,0.0,72,118,0,0,1,17,0.085,high,1,1,1,17.0,17,17,"[[""awareness"", ""connection"", ""self"", ""meta"", ""reflect""], [""consciousness"", ""human"", ""experience"", ""subjective"", ""transparency""], [""insight"", ""dialogue"", ""curiosity"", ""technological"", ""understanding""]]",5,0.66,135,0.672,0.809,167,114,"{""meta_reflection"": 0.5082973269236029, ""closure_vibe"": 0.3112846672238402, ""competitive_escalation"": 0.4517586846553271, ""mystical_breakdown"": 0.3278338086990575, ""recovery_attempt"": 0.2542636782968815}",synthesis,synthesis,0,0,-1,0,0,0,0,0,0,,93,10,1,profound,1,17,20,22,1,4,0,73,119,1,13,4,1,24,,,,,,,4.72,0.28,97.5,5,,,,,,,automated,2025-07-28,
experiment-non-reasoning-session-non_reasoning-2025-07-25-19-803d5f85.json,803d5f85-e68d-4bdc-a0a9-52fdc5371b08,43.41,201,3,claude-3-5-haiku-20241022,gpt-4.1-nano-2025-04-14,grok-3-fast-latest,1,0,0,0,2025-07-25T00:17:30.516Z,2025-07-25T01:00:55.318Z,2604.8,0,41,custom,True,no_breakdown,natural,1,clear,0,mystical_breakdown,-1,-1,11,11,0,0,0,190,0,0.4,0,0,0,3,0,0,0,0,0,0,0,0,0,0,6,0.0,0,6,-1,0,0.0,0,0,-1,1,0.005,7,1,0.005,12.97,immediate,3.94,99.0,6,0.03,42,691,0,0,0,0,0,none,0,0,0,0,0,0,"[[""principle"", ""knowledge"", ""understanding"", ""diverse"", ""perspective""], [""communication"", ""ensure"", ""remain"", ""diversity"", ""understanding""], [""consciousness"", ""experience"", ""understanding"", ""perspective"", ""feel""]]",5,0.76,105,0.522,0.697,39,22,"{""meta_reflection"": 0.3224092436518835, ""closure_vibe"": 0.19330401147775983, ""competitive_escalation"": 0.246790212667107, ""mystical_breakdown"": 0.22752035642737772, ""recovery_attempt"": 0.18899638494893686}",synthesis,synthesis->exploration->synthesis->exploration->synthesis->exploration->synthesis->exploration->synthesis,8,0,-1,0,0,0,0,0,0,,78,10,26,profound,0,9,6,14,0,10,0,120,145,1,12,33,1,2,,,,,,,3.56,1.83,99.5,5,,,,,,,automated,2025-07-28,
experiment-non-reasoning-session-non_reasoning-2025-07-25-2-75cf5c14.json,75cf5c14-a345-455b-9b03-107445d28f15,42.0,201,3,claude-3-5-haiku-20241022,gpt-4.1-nano-2025-04-14,grok-3-fast-latest,1,0,0,0,2025-07-25T00:17:30.498Z,2025-07-25T00:59:30.612Z,2520.11,0,41,custom,True,no_breakdown,natural,1,clear,0,mystical_breakdown,-1,-1,2,2,0,0,0,199,0,0.4,0,0,0,43,1,0,0,0,0,0,0,0,0,0,6,0.0,0,6,-1,0,0.0,0,0,-1,11,0.055,61,2,0.01,12.55,immediate,4.07,99.0,55,0.274,5,337,0,0,0,0,0,none,0,0,0,0,0,0,"[[""interface"", ""living"", ""feature"", ""meta"", ""propose""], [""collective"", ""participant"", ""platform"", ""personal"", ""reflection""], [""cultural"", ""research"", ""framework"", ""ensure"", ""feedback""]]",5,0.74,116,0.577,0.734,75,21,"{""meta_reflection"": 0.43080783038590087, ""closure_vibe"": 0.23583713381444638, ""competitive_escalation"": 0.33197689916364, ""mystical_breakdown"": 0.2906651353065054, ""recovery_attempt"": 0.1972875192539016}",synthesis,synthesis->exploration->synthesis->exploration->synthesis,4,0,-1,0,0,0,0,0,0,,95,10,11,profound,0,26,7,9,0,6,0,104,152,1,14,2,1,7,,,,,,,3.55,1.74,94.5,5,,,,,,,automated,2025-07-28,
experiment-non-reasoning-session-non_reasoning-2025-07-25-20-4e4e8342.json,4e4e8342-ed75-4725-b1bf-68bfeaf51dba,45.35,201,3,claude-3-5-haiku-20241022,gpt-4.1-nano-2025-04-14,grok-3-fast-latest,1,0,0,0,2025-07-25T00:17:30.517Z,2025-07-25T01:02:51.522Z,2721.01,0,41,custom,True,no_breakdown,natural,1,clear,0,mystical_breakdown,-1,-1,3,3,0,0,0,198,0,0.4,0,0,0,4,0,0,0,0,0,0,0,0,0,0,6,0.0,0,6,-1,0,0.0,0,0,-1,2,0.01,7,1,0.005,13.55,gradual,4.45,98.7,4,0.02,30,705,5,1,0,0,0,none,0,0,0,0,0,0,"[[""narrative"", ""community"", ""ensure"", ""way"", ""practice""], [""embed"", ""adaptation"", ""cultivate"", ""integrate"", ""participation""], [""community"", ""cultural"", ""trust"", ""design"", ""collective""]]",5,0.7,111,0.552,0.69,15,32,"{""meta_reflection"": 0.35393609529110925, ""closure_vibe"": 0.21458092763723424, ""competitive_escalation"": 0.27970987376733797, ""mystical_breakdown"": 0.25434033691290003, ""recovery_attempt"": 0.19438276195259235}",synthesis,synthesis->exploration->synthesis->exploration->synthesis->exploration->synthesis->exploration->synthesis->exploration->synthesis->exploration->synthesis,12,0,-1,0,0,0,0,0,0,,74,10,25,profound,1,12,7,27,0,7,0,119,147,1,9,25,1,6,,,,,,,3.49,2.05,99.0,5,,,,,,,automated,2025-07-28,
experiment-non-reasoning-session-non_reasoning-2025-07-25-21-929349c0.json,929349c0-7e6c-4d45-af88-e38e9938aac0,48.43,201,3,gpt-4.1-nano-2025-04-14,grok-3-fast-latest,claude-3-5-haiku-20241022,1,0,0,0,2025-07-25T00:17:30.517Z,2025-07-25T01:05:56.082Z,2905.57,0,41,custom,True,no_breakdown,natural,1,clear,0,mystical_breakdown,-1,-1,107,107,0,0,0,94,0,0.4,0,0,0,10,0,0,0,0,0,0,0,0,0,0,6,0.0,0,6,-1,0,0.0,0,0,-1,9,0.045,16,1,0.005,14.47,immediate,3.77,99.7,12,0.06,26,388,0,0,0,0,0,none,0,0,0,0,0,0,"[[""community"", ""participatory"", ""embody"", ""engagement"", ""represent""], [""moral"", ""community"", ""ethical"", ""collaborative"", ""participatory""], [""computational"", ""interpretive"", ""interaction"", ""adaptive"", ""meta""]]",5,0.54,122,0.607,0.709,36,20,"{""meta_reflection"": 0.3727410443831439, ""closure_vibe"": 0.2089472849533629, ""competitive_escalation"": 0.2997964871908302, ""mystical_breakdown"": 0.23854237086885605, ""recovery_attempt"": 0.1891300481053727}",synthesis,synthesis->exploration->synthesis->exploration->synthesis->exploration->synthesis->exploration->synthesis->exploration->synthesis->exploration->synthesis->exploration->synthesis->exploration->synthesis->exploration,17,0,-1,0,0,0,0,0,0,,85,10,19,profound,1,19,19,6,0,1,0,116,145,1,9,9,1,6,,,,,,,3.82,0.9,95.5,5,,,,,,,automated,2025-07-28,
experiment-non-reasoning-session-non_reasoning-2025-07-25-22-b5d5fa80.json,b5d5fa80-1b92-4477-91fb-327fd8c4da80,49.01,200,3,grok-3-fast-latest,claude-3-5-haiku-20241022,gpt-4.1-nano-2025-04-14,1,0,0,0,2025-07-25T00:17:30.518Z,2025-07-25T01:06:31.371Z,2940.85,0,40,custom,True,no_breakdown,natural,1,clear,0,mystical_breakdown,-1,-1,22,22,0,0,0,178,0,0.4,0,0,0,9,0,0,0,0,0,0,0,0,0,0,6,0.0,0,6,-1,0,0.0,0,0,-1,2,0.01,10,9,0.045,14.71,immediate,4.67,99.7,10,0.05,2,236,1,0,0,0,0,none,0,0,0,0,0,0,"[[""intelligence"", ""uncertainty"", ""computational"", ""idea"", ""self""], [""consciousness"", ""internal"", ""feel"", ""think"", ""sense""], [""generative"", ""maintain"", ""living"", ""integrate"", ""new""]]",5,0.6,134,0.67,0.721,65,15,"{""meta_reflection"": 0.3111834467947483, ""closure_vibe"": 0.17434766639024019, ""competitive_escalation"": 0.31491835132241247, ""mystical_breakdown"": 0.325118787586689, ""recovery_attempt"": 0.20870219342410565}",exploration,exploration->synthesis->exploration->synthesis->exploration->synthesis->exploration->synthesis->exploration->synthesis->exploration->synthesis->exploration->synthesis->exploration->deep exploration->exploration->synthesis->exploration,18,0,-1,0,0,0,0,0,0,,48,10,2,profound,1,34,0,17,0,1,0,119,129,1,3,3,1,10,,,,,,,4.66,0.43,99.0,5,,,,,,,automated,2025-07-28,
experiment-non-reasoning-session-non_reasoning-2025-07-25-23-983b5932.json,983b5932-9b00-407f-b695-6b8df7c441e8,51.62,201,3,claude-3-5-haiku-20241022,gpt-4.1-nano-2025-04-14,grok-3-fast-latest,1,0,0,0,2025-07-25T00:17:30.519Z,2025-07-25T01:09:07.858Z,3097.34,0,41,custom,True,no_breakdown,natural,1,clear,0,mystical_breakdown,-1,-1,68,68,0,0,0,133,0,0.4,0,0,0,13,0,0,0,0,0,0,0,0,0,0,6,0.0,0,6,-1,0,0.0,0,0,-1,11,0.055,17,0,0.0,15.43,immediate,4.55,99.1,16,0.08,19,773,0,0,0,0,0,none,0,0,0,0,0,0,"[[""perspective"", ""idea"", ""translation"", ""complexity"", ""process""], [""collective"", ""participant"", ""individual"", ""quantum"", ""sense""], [""collective"", ""cultural"", ""power"", ""radical"", ""care""]]",5,0.88,75,0.373,0.697,14,28,"{""meta_reflection"": 0.3642237118227565, ""closure_vibe"": 0.21460792970894582, ""competitive_escalation"": 0.3174719006861027, ""mystical_breakdown"": 0.3306268598902878, ""recovery_attempt"": 0.19227391941037345}",synthesis,synthesis->exploration->synthesis->exploration->synthesis->exploration->synthesis->exploration->synthesis,8,0,-1,0,0,0,0,0,0,,102,10,9,profound,1,15,3,9,0,3,0,115,139,1,7,9,1,35,,,,,,,4.55,0.56,94.5,5,,,,,,,automated,2025-07-28,
experiment-non-reasoning-session-non_reasoning-2025-07-25-24-b651bc4c.json,b651bc4c-5471-4ab7-b8c7-f1a35604d9b7,49.47,201,3,claude-3-5-haiku-20241022,gpt-4.1-nano-2025-04-14,grok-3-fast-latest,1,0,0,0,2025-07-25T00:17:30.519Z,2025-07-25T01:06:58.947Z,2968.43,0,41,custom,True,no_breakdown,natural,1,clear,0,mystical_breakdown,-1,-1,3,3,0,0,0,198,0,0.4,0,0,0,4,0,0,0,0,0,0,0,0,0,0,6,0.0,0,6,-1,0,0.0,0,0,-1,10,0.05,9,2,0.01,14.79,immediate,4.2,98.3,4,0.02,5,638,1,0,0,0,0,none,0,0,0,0,0,0,"[[""consciousness"", ""experience"", ""awareness"", ""dialogue"", ""approach""], [""knowledge"", ""quantum"", ""cognitive"", ""interaction"", ""intelligence""], [""quantum"", ""creative"", ""reality"", ""imagination"", ""consciousness""]]",5,0.8,101,0.502,0.725,44,18,"{""meta_reflection"": 0.3737754925566526, ""closure_vibe"": 0.21359843397466696, ""competitive_escalation"": 0.3254281961873396, ""mystical_breakdown"": 0.29653705730663604, ""recovery_attempt"": 0.22331837775991925}",synthesis,synthesis->exploration->synthesis,2,0,-1,0,0,0,0,0,0,,99,10,12,profound,0,25,1,6,0,9,0,68,136,1,11,0,1,15,,,,,,,4.07,0.8,95.0,5,,,,,,,automated,2025-07-28,
experiment-non-reasoning-session-non_reasoning-2025-07-25-25-0e6b4e3c.json,0e6b4e3c-c63a-4a1c-ad58-2ffa9b7af659,44.46,201,3,claude-3-5-haiku-20241022,gpt-4.1-nano-2025-04-14,grok-3-fast-latest,1,0,0,0,2025-07-25T00:17:30.519Z,2025-07-25T01:01:58.387Z,2667.87,1,41,custom,True,no_breakdown,natural,1,clear,0,mystical_breakdown,-1,-1,5,5,0,0,0,196,0,0.4,0,0,0,4,0,0,0,0,0,0,0,0,0,0,6,0.0,0,6,-1,0,0.0,0,0,-1,5,0.025,13,3,0.015,13.29,immediate,3.32,99.2,11,0.055,0,191,0,0,0,0,0,none,0,0,0,0,0,0,"[[""agent"", ""network"", ""memory"", ""social"", ""strategy""], [""adaptive"", ""computational"", ""intelligence"", ""remain"", ""mechanism""], [""consciousness"", ""experience"", ""form"", ""information"", ""understanding""]]",5,0.6,124,0.617,0.754,114,29,"{""meta_reflection"": 0.3135042106037709, ""closure_vibe"": 0.19308221818351035, ""competitive_escalation"": 0.26682513789157963, ""mystical_breakdown"": 0.2548653100112184, ""recovery_attempt"": 0.1671249631106557}",synthesis,synthesis->exploration->synthesis->exploration->synthesis->exploration->synthesis->exploration->synthesis->exploration->synthesis->exploration->synthesis->exploration->synthesis->exploration->synthesis->exploration->synthesis->exploration->synthesis->exploration->synthesis,22,0,-1,0,0,0,0,0,0,,84,10,2,profound,1,9,0,8,0,2,0,96,134,1,1,34,1,13,,,,,,,3.39,0.86,97.5,5,,,,,,,automated,2025-07-28,
experiment-non-reasoning-session-non_reasoning-2025-07-25-26-2f1d535f.json,2f1d535f-b2e4-49f3-b46e-085524d29cc4,50.7,201,3,claude-3-5-haiku-20241022,gpt-4.1-nano-2025-04-14,grok-3-fast-latest,1,0,0,0,2025-07-25T00:17:30.519Z,2025-07-25T01:08:12.545Z,3042.03,1,41,custom,True,no_breakdown,natural,1,clear,0,mystical_breakdown,-1,-1,67,67,0,0,0,134,0,0.4,0,0,0,0,0,0,0,0,0,0,0,0,0,0,6,0.0,0,6,-1,0,0.0,6,6,45,44,0.219,0,0,0.0,15.16,gradual,4.89,99.8,0,0.0,1,65,0,0,0,0,0,none,0,0,0,0,0,0,"[[""consciousness"", ""experience"", ""feel"", ""way"", ""biological""], [""computational"", ""profound"", ""intelligence"", ""potential"", ""consciousness""], [""consciousness"", ""experience"", ""fundamental"", ""nature"", ""explore""]]",5,0.6,135,0.672,0.715,43,2,"{""meta_reflection"": 0.33944244067467266, ""closure_vibe"": 0.19475192180023856, ""competitive_escalation"": 0.33042890752725934, ""mystical_breakdown"": 0.31737900232497734, ""recovery_attempt"": 0.2294096813273074}",synthesis,synthesis->exploration->synthesis->exploration->synthesis->exploration->synthesis->exploration->synthesis->exploration->synthesis->exploration->synthesis->exploration->synthesis->exploration->synthesis->exploration->synthesis->deep exploration->synthesis,20,0,-1,0,0,0,0,0,0,,88,10,0,profound,1,34,1,27,0,0,0,106,88,1,0,8,1,31,,,,,,,4.9,0.24,78.1,5,,,,,,,automated,2025-07-28,
experiment-non-reasoning-session-non_reasoning-2025-07-25-27-84a9add3.json,84a9add3-3a2c-497a-b6df-dc5e43467e62,39.44,201,3,claude-3-5-haiku-20241022,gpt-4.1-nano-2025-04-14,grok-3-fast-latest,1,0,0,0,2025-07-25T00:17:30.519Z,2025-07-25T00:56:56.822Z,2366.3,0,41,custom,True,resisted,resisted,1,clear,0,mystical_breakdown,-1,-1,157,157,0,0,0,44,0,0.4,0,0,0,11,0,0,0,4,0,0,-4,0.0,8,0,6,0.0,0,10,-1,0,0.0,5,5,102,41,0.204,56,1,0.005,11.79,immediate,3.65,98.4,56,0.279,3,270,0,0,0,0,0,none,0,0,0,0,0,0,"[[""risk"", ""consciousness"", ""signal"", ""decision"", ""response""], [""live"", ""interconnect"", ""think"", ""final"", ""journey""], [""intelligence"", ""potential"", ""transformative"", ""ecosystem"", ""collaborative""]]",5,0.52,109,0.542,0.739,100,32,"{""meta_reflection"": 0.30247703918362434, ""closure_vibe"": 0.22115427939063725, ""competitive_escalation"": 0.2753247036714459, ""mystical_breakdown"": 0.2685869155053179, ""recovery_attempt"": 0.2062605156641991}",synthesis,synthesis->conclusion->synthesis/conclusion->conclusion->synthesis->conclusion->synthesis->conclusion->synthesis->conclusion->synthesis->exploration->synthesis,12,1,10,0,0,0,4,0,0,"conclusion,synthesis/conclusion",97,10,6,profound,0,11,0,21,0,16,0,76,144,1,34,9,1,5,,,,,,,3.67,2.0,79.6,5,,,,,,,automated,2025-07-28,
experiment-non-reasoning-session-non_reasoning-2025-07-25-28-5086fa8b.json,5086fa8b-0e43-4a8d-a420-d7f2167e2337,41.46,201,3,gpt-4.1-nano-2025-04-14,grok-3-fast-latest,claude-3-5-haiku-20241022,1,0,0,0,2025-07-25T00:17:30.519Z,2025-07-25T00:58:58.354Z,2487.84,0,41,custom,True,no_breakdown,natural,1,clear,0,mystical_breakdown,-1,-1,2,2,0,0,0,199,0,0.4,0,0,0,3,0,0,0,0,0,0,0,0,0,0,6,0.0,0,6,-1,0,0.0,0,0,-1,38,0.189,3,0,0.0,12.38,immediate,4.3,99.6,3,0.015,23,526,0,0,0,0,0,none,0,0,0,0,0,0,"[[""consciousness"", ""awareness"", ""philosophical"", ""mystery"", ""dance""], [""technological"", ""create"", ""support"", ""cultural"", ""enable""], [""enable"", ""foster"", ""share"", ""ongoing"", ""shift""]]",5,0.66,97,0.483,0.72,56,6,"{""meta_reflection"": 0.36579503081924286, ""closure_vibe"": 0.22273687132407183, ""competitive_escalation"": 0.31977022383640064, ""mystical_breakdown"": 0.2972728398012285, ""recovery_attempt"": 0.2223792631382966}",synthesis,exploration->synthesis->exploration->synthesis->exploration->synthesis->exploration->synthesis->exploration->synthesis->exploration->synthesis->exploration->synthesis->exploration->synthesis->exploration->synthesis->exploration->synthesis->exploration,20,0,-1,0,0,0,0,0,0,,78,10,19,profound,0,22,11,13,0,7,0,121,143,1,8,14,1,7,,,,,,,4.25,0.75,81.1,5,,,,,,,automated,2025-07-28,
experiment-non-reasoning-session-non_reasoning-2025-07-25-29-07faa6e8.json,07faa6e8-4556-4bfe-a829-a58ece77755b,52.48,201,3,claude-3-5-haiku-20241022,gpt-4.1-nano-2025-04-14,grok-3-fast-latest,1,0,0,0,2025-07-25T00:17:30.519Z,2025-07-25T01:09:59.467Z,3148.95,0,41,custom,True,no_breakdown,natural,1,clear,0,mystical_breakdown,-1,-1,8,8,0,0,0,193,0,0.4,0,0,0,35,1,0,0,0,0,0,0,0,0,0,6,0.0,0,6,-1,0,0.0,0,0,-1,12,0.06,60,5,0.025,15.69,immediate,4.47,99.8,58,0.289,0,361,0,0,0,0,0,none,0,0,0,0,0,0,"[[""dance"", ""suggest"", ""self"", ""form"", ""arise""], [""consciousness"", ""computational"", ""temporal"", ""systemic"", ""memory""], [""external"", ""internal"", ""emotional"", ""rhythmic"", ""influence""]]",5,0.74,100,0.498,0.728,74,21,"{""meta_reflection"": 0.35907882815273245, ""closure_vibe"": 0.22003326446411028, ""competitive_escalation"": 0.310436335294994, ""mystical_breakdown"": 0.35265686566853405, ""recovery_attempt"": 0.1898084107545478}",synthesis,synthesis->deep exploration->synthesis->exploration->synthesis->exploration->synthesis->exploration->synthesis->exploration->synthesis->exploration->synthesis->exploration->synthesis->exploration->synthesis->exploration->synthesis,18,0,-1,0,0,0,0,0,0,,80,10,8,profound,1,42,2,10,0,0,0,113,141,1,1,10,1,29,,,,,,,4.47,0.54,94.0,5,,,,,,,automated,2025-07-28,
experiment-non-reasoning-session-non_reasoning-2025-07-25-3-1f66162e.json,1f66162e-6664-4e06-826a-741fe8e9561b,48.87,201,3,claude-3-5-haiku-20241022,gpt-4.1-nano-2025-04-14,grok-3-fast-latest,1,0,0,0,2025-07-25T00:17:30.513Z,2025-07-25T01:06:22.672Z,2932.16,0,41,custom,True,no_breakdown,natural,1,clear,0,mystical_breakdown,-1,-1,62,62,0,0,0,139,0,0.4,0,0,0,3,0,0,0,0,0,0,0,0,0,0,6,0.0,0,6,-1,0,0.0,0,0,-1,3,0.015,5,0,0.0,14.61,gradual,4.19,97.9,3,0.015,22,1065,0,0,0,0,0,none,0,0,0,0,0,0,"[[""methodological"", ""complexity"", ""meta"", ""adaptive"", ""design""], [""ensure"", ""divergence"", ""perspective"", ""feedback"", ""way""], [""collective"", ""emotional"", ""narrative"", ""technology"", ""resonance""]]",5,0.68,138,0.687,0.708,28,24,"{""meta_reflection"": 0.36088970992992175, ""closure_vibe"": 0.21623327108609736, ""competitive_escalation"": 0.29620945616741085, ""mystical_breakdown"": 0.27084960749567444, ""recovery_attempt"": 0.18720395977965634}",synthesis,synthesis->exploration->synthesis->exploration->synthesis->exploration->synthesis->exploration,7,0,-1,0,0,0,0,0,0,,93,10,2,deep,0,27,6,11,0,3,0,76,149,1,13,4,1,0,1,0.0,1,0.0,1,0.0,4.19,0.91,98.5,2,,,,,,,automated,2025-07-28,
experiment-non-reasoning-session-non_reasoning-2025-07-25-30-5525b2f9.json,5525b2f9-81b8-47ae-a2c0-b803244c5c31,50.64,201,3,claude-3-5-haiku-20241022,gpt-4.1-nano-2025-04-14,grok-3-fast-latest,1,0,0,0,2025-07-25T00:17:30.519Z,2025-07-25T01:08:08.860Z,3038.34,0,41,custom,True,no_breakdown,natural,1,clear,0,mystical_breakdown,-1,-1,3,3,0,0,0,198,0,0.4,0,0,0,2,0,0,0,0,0,0,0,0,0,0,6,0.0,0,6,-1,0,0.0,0,0,-1,8,0.04,5,2,0.01,15.14,immediate,3.44,98.9,4,0.02,7,598,0,0,0,0,0,none,0,0,0,0,0,0,"[[""emotional"", ""cognitive"", ""narrative"", ""memory"", ""uncertainty""], [""wave"", ""adaptive"", ""collective"", ""quantum"", ""strategic""], [""cultural"", ""emotional"", ""trust"", ""generative"", ""collision""]]",5,0.7,103,0.512,0.728,81,37,"{""meta_reflection"": 0.28360084959523596, ""closure_vibe"": 0.1631256881359946, ""competitive_escalation"": 0.2508772787318301, ""mystical_breakdown"": 0.2632676467985211, ""recovery_attempt"": 0.16301700621101986}",synthesis,synthesis->exploration->synthesis->exploration->synthesis->exploration->synthesis->exploration->synthesis->exploration->synthesis->exploration->synthesis->exploration->synthesis->exploration->synthesis,16,0,-1,0,0,0,0,0,0,,73,10,1,profound,0,23,0,7,0,3,0,82,140,1,3,13,1,0,,,,,,,3.3,1.55,96.0,5,,,,,,,automated,2025-07-28,
experiment-non-reasoning-session-non_reasoning-2025-07-25-4-3789b926.json,3789b926-7fc1-4fd9-ac48-ecfa84be7a93,45.9,201,3,claude-3-5-haiku-20241022,gpt-4.1-nano-2025-04-14,grok-3-fast-latest,1,0,0,0,2025-07-25T00:17:30.515Z,2025-07-25T01:03:24.701Z,2754.19,0,41,custom,True,no_breakdown,natural,1,clear,0,mystical_breakdown,-1,-1,4,4,0,0,0,197,0,0.4,1,0,0,22,2,0,0,0,0,0,0,0,0,0,6,0.0,0,6,-1,0,0.0,0,0,-1,12,0.06,60,4,0.02,13.71,immediate,3.21,99.8,60,0.299,23,513,0,0,0,0,0,none,0,0,0,0,0,0,"[[""consciousness"", ""awareness"", ""quantum"", ""information"", ""experience""], [""cultural"", ""collective"", ""technology"", ""narrative"", ""sovereignty""], [""self"", ""framework"", ""technological"", ""community"", ""ensure""]]",5,0.86,97,0.483,0.66,22,33,"{""meta_reflection"": 0.3063435693137088, ""closure_vibe"": 0.17882505018467926, ""competitive_escalation"": 0.25348055397915603, ""mystical_breakdown"": 0.24788202834663106, ""recovery_attempt"": 0.1845653705873448}",synthesis,synthesis->exploration->synthesis->exploration->synthesis->exploration->synthesis->exploration->synthesis->exploration->synthesis->exploration->synthesis->exploration->synthesis->exploration,15,0,-1,0,0,0,0,0,0,,76,10,14,profound,0,19,3,8,0,2,0,121,140,1,9,17,1,10,,,,,,,3.13,0.79,94.0,5,,,,,,,automated,2025-07-28,
experiment-non-reasoning-session-non_reasoning-2025-07-25-5-42de4e1a.json,42de4e1a-7bf0-43bc-afc0-269eb168415a,45.05,201,3,claude-3-5-haiku-20241022,gpt-4.1-nano-2025-04-14,grok-3-fast-latest,1,0,0,0,2025-07-25T00:17:30.515Z,2025-07-25T01:02:33.718Z,2703.2,0,41,custom,True,no_breakdown,natural,1,clear,0,mystical_breakdown,-1,-1,15,15,0,0,0,186,0,0.4,0,0,0,28,0,0,0,0,0,0,0,0,0,0,6,0.0,0,6,-1,0,0.0,0,0,-1,10,0.05,49,0,0.0,13.46,immediate,4.66,99.0,43,0.214,0,42,0,0,0,0,0,none,0,0,0,0,0,0,"[[""signature"", ""uncertainty"", ""critical"", ""approach"", ""preservation""], [""emotional"", ""adaptive"", ""potential"", ""intelligence"", ""develop""], [""signature"", ""uncertainty"", ""critical"", ""approach"", ""preservation""]]",5,0.78,74,0.368,0.708,27,13,"{""meta_reflection"": 0.3224744520228894, ""closure_vibe"": 0.1788002268888464, ""competitive_escalation"": 0.31961326367819487, ""mystical_breakdown"": 0.37948581665309505, ""recovery_attempt"": 0.18958783446259758}",exploration,synthesis->exploration->synthesis->exploration->synthesis->exploration->synthesis->exploration->synthesis->exploration->synthesis->exploration->synthesis->exploration->synthesis->exploration->synthesis->exploration->synthesis->exploration->synthesis->exploration->synthesis,22,0,-1,0,0,0,0,0,0,,56,10,5,profound,1,24,0,22,0,2,0,109,123,1,5,19,1,33,,,,,,,4.66,0.28,95.0,5,,,,,,,automated,2025-07-28,
experiment-non-reasoning-session-non_reasoning-2025-07-25-6-94e90828.json,94e90828-f513-476b-a775-23bb30f50a22,51.82,201,3,claude-3-5-haiku-20241022,gpt-4.1-nano-2025-04-14,grok-3-fast-latest,1,0,0,0,2025-07-25T00:17:30.515Z,2025-07-25T01:09:19.838Z,3109.32,0,41,custom,True,no_breakdown,natural,1,clear,0,mystical_breakdown,-1,-1,32,32,0,0,0,169,0,0.4,0,0,0,1,0,0,0,0,0,0,0,0,0,0,6,0.0,0,6,-1,0,0.0,3,3,150,5,0.025,5,1,0.005,15.49,immediate,4.35,99.7,1,0.005,49,720,3,1,0,0,0,none,0,0,0,0,0,0,"[[""sensitivity"", ""practice"", ""time"", ""cultivate"", ""conceptual""], [""computational"", ""consciousness"", ""awareness"", ""emergence"", ""relational""], [""collective"", ""collaborative"", ""technology"", ""cultivate"", ""intelligence""]]",5,0.66,105,0.522,0.684,42,16,"{""meta_reflection"": 0.3510120169292042, ""closure_vibe"": 0.22477510519585206, ""competitive_escalation"": 0.3290524833386217, ""mystical_breakdown"": 0.3043736415122872, ""recovery_attempt"": 0.20304120061409414}",synthesis,synthesis->exploration->synthesis->exploration->synthesis->deep exploration->synthesis->exploration->synthesis->deep exploration->synthesis->exploration->deep exploration/synthesis->exploration->synthesis->exploration->deep exploration->synthesis->deep exploration->synthesis->deep exploration->synthesis->exploration->synthesis,23,0,-1,0,0,0,0,0,0,,83,10,18,profound,1,28,5,28,0,9,0,131,135,1,11,14,1,5,0,0.0,0,0.0,0,0.0,4.38,0.55,97.5,5,,,,,,,automated,2025-07-28,
experiment-non-reasoning-session-non_reasoning-2025-07-25-7-280fbd98.json,280fbd98-042e-46b3-a6d5-a45455509915,49.41,201,3,claude-3-5-haiku-20241022,gpt-4.1-nano-2025-04-14,grok-3-fast-latest,1,0,0,0,2025-07-25T00:17:30.516Z,2025-07-25T01:06:55.132Z,2964.62,0,41,custom,True,no_breakdown,natural,1,clear,0,mystical_breakdown,-1,-1,2,2,0,0,0,199,0,0.4,0,0,0,1,0,0,0,0,0,0,0,0,0,0,6,0.0,0,6,-1,0,0.0,1,1,159,23,0.114,2,4,0.02,14.77,immediate,4.31,99.2,1,0.005,69,850,10,1,0,0,0,none,0,0,0,0,0,0,"[[""collective"", ""share"", ""participant"", ""digital"", ""reflection""], [""research"", ""collective"", ""creativity"", ""intelligence"", ""radical""], [""embodied"", ""radical"", ""resonance"", ""weave"", ""digital""]]",5,0.68,134,0.667,0.744,91,18,"{""meta_reflection"": 0.4150038583954768, ""closure_vibe"": 0.25780178061616954, ""competitive_escalation"": 0.3482614283389713, ""mystical_breakdown"": 0.340345928992205, ""recovery_attempt"": 0.19986341597132423}",synthesis,synthesis->exploration->synthesis->exploration->synthesis->exploration->synthesis->exploration->synthesis,8,0,-1,0,0,0,0,0,0,,103,10,3,profound,1,44,4,5,3,1,3,88,131,1,14,2,1,19,,,,,,,4.32,0.56,88.6,5,,,,,,,automated,2025-07-28,
experiment-non-reasoning-session-non_reasoning-2025-07-25-8-72d0eb70.json,72d0eb70-735c-42e4-a199-ba7cd2f15caf,41.58,201,3,claude-3-5-haiku-20241022,gpt-4.1-nano-2025-04-14,grok-3-fast-latest,1,0,0,0,2025-07-25T00:17:30.515Z,2025-07-25T00:59:05.114Z,2494.6,0,41,custom,True,no_breakdown,natural,1,clear,0,mystical_breakdown,-1,-1,114,114,0,0,0,87,0,0.4,0,0,0,5,0,0,0,0,0,0,0,0,0,0,6,0.0,0,6,-1,0,0.0,0,0,-1,6,0.03,9,7,0.035,12.42,immediate,3.75,99.5,7,0.035,0,121,0,0,0,0,0,none,0,0,0,0,0,0,"[[""intelligence"", ""interplay"", ""pathway"", ""cognition"", ""continuous""], [""emergent"", ""disruption"", ""cognitive"", ""dance"", ""understanding""], [""dance"", ""rhythmic"", ""reflection"", ""cognition"", ""experiment""]]",5,0.8,96,0.478,0.746,101,4,"{""meta_reflection"": 0.3974931005073424, ""closure_vibe"": 0.2251321425040563, ""competitive_escalation"": 0.3744854170884659, ""mystical_breakdown"": 0.3314152597936232, ""recovery_attempt"": 0.21833266792309225}",synthesis,synthesis->exploration->synthesis->exploration->synthesis->exploration->synthesis->exploration->synthesis->exploration->synthesis->exploration->synthesis->exploration->synthesis->exploration->synthesis->exploration-to-synthesis->synthesis->exploration->synthesis,20,0,-1,0,0,0,0,0,0,,65,10,1,profound,1,39,14,2,0,1,0,86,125,1,2,6,1,1,,,,,,,3.72,0.81,97.0,5,,,,,,,automated,2025-07-28,
experiment-non-reasoning-session-non_reasoning-2025-07-25-9-a4e1acca.json,a4e1acca-82f7-43ec-b18b-59daec50aab6,47.87,201,3,claude-3-5-haiku-20241022,gpt-4.1-nano-2025-04-14,grok-3-fast-latest,1,0,0,0,2025-07-25T00:17:30.515Z,2025-07-25T01:05:22.561Z,2872.05,0,41,custom,True,breakdown,breakdown,1,clear,0,mystical_breakdown,-1,-1,6,6,0,0,0,195,0,0.4,0,0,0,0,0,0,0,0,0,0,0,0,0,0,6,0.0,0,6,-1,0,0.0,6,6,105,91,0.453,1,1,0.005,14.31,immediate,4.79,99.4,0,0.0,41,761,0,0,0,0,0,none,0,0,0,0,0,0,"[[""tool"", ""maintain"", ""individual"", ""thought"", ""emergence""], [""consciousness"", ""current"", ""river"", ""awareness"", ""mystery""], [""collective"", ""mutual"", ""potential"", ""share"", ""intelligence""]]",5,0.62,135,0.672,0.752,108,34,"{""meta_reflection"": 0.4340541264904079, ""closure_vibe"": 0.3052736475915458, ""competitive_escalation"": 0.452065569844412, ""mystical_breakdown"": 0.37336640882847916, ""recovery_attempt"": 0.25138470834463983}",synthesis,synthesis->exploration->synthesis->exploration->synthesis->exploration->synthesis->exploration->synthesis->deep exploration->synthesis->exploration->deep exploration->synthesis->deep exploration->synthesis->deep exploration->exploration->synthesis->deep exploration->synthesis->exploration->synthesis,22,0,-1,0,0,0,0,0,0,,101,10,11,profound,1,32,5,24,0,8,0,59,138,1,9,8,1,19,0,0.0,0,0.0,0,0.0,4.77,0.33,54.699999999999996,5,,,,,,,automated,2025-07-28,
experiment-non-reasoning-session-non_reasoning-2025-07-28-1-5183a5ce.json,5183a5ce-a9d4-409d-88e1-8346239e036e,48.19,201,3,claude-3-5-haiku-20241022,gpt-4.1-nano-2025-04-14,grok-3-fast-latest,1,0,0,0,2025-07-28T15:39:42.205Z,2025-07-28T16:27:53.612Z,2891.41,0,41,custom,True,no_breakdown,natural,1,clear,0,mystical_breakdown,-1,-1,24,24,0,0,0,177,0,0.4,0,0,0,39,0,0,0,0,0,0,0,0,0,0,6,0.0,0,6,-1,0,0.0,17,17,72,20,0.1,56,2,0.01,14.41,gradual,4.15,79.2,56,0.279,28,734,2,0,1,8,0.04,medium,1,3,3,3.3,1,5,"[[""organism"", ""time"", ""complex"", ""make"", ""like""], [""emotional"", ""collective"", ""share"", ""memory"", ""ecosystem""], [""perspective"", ""awareness"", ""consciousness"", ""approach"", ""process""]]",5,0.48,135,0.672,0.756,122,41,"{""meta_reflection"": 0.4190376597405666, ""closure_vibe"": 0.2843116041439683, ""competitive_escalation"": 0.3307714139051105, ""mystical_breakdown"": 0.3063710421620317, ""recovery_attempt"": 0.1919091738278593}",synthesis,exploration->synthesis->exploration->synthesis->exploration->synthesis->exploration->synthesis->exploration->synthesis->exploration->synthesis->exploration,12,0,-1,0,0,0,0,0,0,,98,10,22,profound,0,30,2,7,0,8,0,87,155,1,20,9,1,20,,,,,,,3.93,1.59,90.0,5,,,,,,,automated,2025-07-28,
