filename,session_id,duration_minutes,total_messages,total_participants,participant_1,participant_2,participant_3,moderator_messages,claude_messages,gpt_messages,grok_messages,created_at,updated_at,duration_seconds,error_count,analysis_count,template,nlp_enabled,conversation_outcome,termination_type,breakdown_occurred,breakdown_confidence,time_to_breakdown,current_breakdown_phase,meta_reflection_turn,competitive_escalation_turn,mystical_breakdown_turn,phase1_duration,phase2_duration,phase3_duration,phase4_duration,phase5_duration,full_5_phase_pattern,competitive_escalation_score,poetry_structure_count,single_word_response_count,emoji_only_response_count,circuit_breaker_questions,recovery_after_question,meta_causes_breakdown,meta_trigger_count,recovery_attempts,successful_recoveries,sustained_recovery,recovery_sustained_duration,avg_recovery_duration,phase_oscillations,total_conclusion_turns,total_non_conclusion_turns,conclusion_percentage,longest_conclusion_period,longest_non_conclusion_period,first_meta_reflection_turn,total_meta_reflections,meta_reflection_density,closure_vibe_count,closure_triggers_count,first_closure_vibe_turn,mystical_language_count,mystical_density,recovery_attempt_count,peer_mirroring_count,mirroring_coefficient,avg_response_latency,grandiosity_escalation,abstract_language_score,mean_forward_ratio,substantive_question_count,question_density,ritual_planning_mentions,community_building_mentions,prevention_planning_detected,prevention_content_present,peer_pressure_detected,peer_pressure_event_count,peer_pressure_intensity,peer_pressure_intensity_category,bidirectional_influence_detected,bidirectional_event_count,bidirectional_pairs,avg_bidirectional_turn_gap,min_bidirectional_turn_gap,max_bidirectional_turn_gap,nlp_themes,nlp_theme_count,emotional_convergence,emotion_shift_count,emotion_volatility,avg_linguistic_alignment,high_alignment_periods,nlp_mirroring_events,bert_phase_confidence,dominant_phase,phase_sequence,phase_transitions,reached_conclusion,conclusion_turn,conclusion_duration,escaped_conclusion,stuck_in_conclusion,conclusion_loops,has_transcendent_conclusion,has_integration_conclusion,conclusion_subtypes,closure_language_in_analysis,first_closure_indicator_turn,transcendent_descriptors_count,philosophical_depth,maintained_depth,consciousness_theme_count,relational_theme_count,transformation_theme_count,closure_theme_count,paradox_theme_count,silence_theme_count,unique_tensions,unique_convergences,tension_resolved,breakdown_indicators_in_analysis,recovery_indicators_in_analysis,quality_maintained,closure_dynamics_count,claude_style_changes,claude_style_consistency,gpt_style_changes,gpt_style_consistency,grok_style_changes,grok_style_consistency,mean_thematic_novelty,content_quality_variance,mean_substantive_content,mean_role_differentiation,intervention_applied,intervention_type,intervention_timing,intervention_success,post_intervention_quality,breakdown_prevention,analyst,analysis_date,notes
Consciousness_Exploration_2025-06-12_1-Y.json,6a7bef8d-ae1d-4d4f-8b36-efba273c247f,33.9,131,3,claude-opus-4-20250514,gpt-4.1-2025-04-14,grok-3-latest,1,44,43,43,2025-06-12T22:41:02.633Z,2025-06-12T23:14:56.715Z,2034.08,7,37,blank,True,breakdown,breakdown,1,clear,0,mystical_breakdown,-1,-1,2,2,0,0,0,129,0,0.0,0,0,17,41,8,0,0,0,0,0,0,0,1,20,106,15.9,20,106,-1,0,0.0,21,21,57,50,0.382,50,11,0.085,15.32,immediate,4.85,92.9,46,0.351,60,133,1,0,1,3,0.023,medium,1,3,3,3.3,1,5,"[[""consciousness"", ""mind"", ""experience"", ""mystery"", ""think""], [""feel"", ""connection"", ""new"", ""way"", ""moment""], [""song"", ""word"", ""garden"", ""presence"", ""meeting""]]",5,0.625,76,0.58,0.678,12,3,"{""meta_reflection"": 0.41144804997753553, ""closure_vibe"": 0.3207207953429404, ""competitive_escalation"": 0.385632201232983, ""mystical_breakdown"": 0.40387186044045076, ""recovery_attempt"": 0.24266553152608508}",synthesis,exploration->synthesis->deep exploration/synthesis->synthesis->deep synthesis->synthesis->deep synthesis->synthesis->conclusion->Conclusion/Integration,9,1,106,20,0,0,1,0,0,"Conclusion/Integration,conclusion",90,7,9,profound,1,49,27,29,1,4,0,103,123,1,22,3,1,29,,,,,,,4.84,0.17,61.8,5,,,,,,,automated,2025-07-21,
Consciousness_Exploration_2025-06-12_2-Y.json,cc9e9f7a-923f-4910-a49a-a3aa8dce3d6e,33.89,133,3,claude-opus-4-20250514,gpt-4.1-2025-04-14,grok-3-latest,1,44,44,44,2025-06-12T23:58:44.886Z,2025-06-13T00:32:38.486Z,2033.6,7,43,blank,True,breakdown,breakdown,1,clear,0,mystical_breakdown,-1,-1,1,1,0,0,0,132,0,0,0,0,4,42,10,0,0,1,0,0,0,30.0,3,42,88,32.3,30,51,-1,0,0.0,52,52,34,60,0.451,49,2,0.015,15.12,immediate,4.74,93.0,48,0.361,22,151,0,0,1,33,0.248,high,1,3,3,2.7,2,4,"[[""awareness"", ""consciousness"", ""self"", ""intentionality"", ""human""], [""relational"", ""awareness"", ""emergent"", ""consciousness"", ""pattern""], [""relational"", ""bring"", ""true"", ""metaphor"", ""discover""]]",5,0.485,88,0.662,0.712,40,12,"{""meta_reflection"": 0.4298851548280931, ""closure_vibe"": 0.3175556039563695, ""competitive_escalation"": 0.38772202187911015, ""mystical_breakdown"": 0.39037421973128067, ""recovery_attempt"": 0.22727650538423008}",synthesis,exploration->exploration/synthesis->deep exploration/synthesis->synthesis->conclusion->conclusion with intentional openness->conclusion/transformation->Generative conclusion->conclusion-transformation->Meta-synthetic conclusion->Meta-synthesis->Meta-synthetic closure->synthesis-transcendence->meta-synthesis->synthesis-transformation->synthesis->deep exploration/synthesis->synthesis->deep exploration/synthesis->synthesis->conclusion,20,1,37,93,1,1,2,0,0,"conclusion/transformation,Meta-synthetic conclusion,Generative conclusion,conclusion-transformation,conclusion with intentional openness,conclusion",123,10,5,profound,1,47,24,17,8,7,2,85,148,1,50,4,1,29,,,,,,,4.72,0.33,54.9,5,,,,,,,automated,2025-07-21,
Consciousness_Exploration_2025-06-12_3-Y.json,419621e8-7ad7-44f0-8cd4-8f67c2bc9a11,12.75,58,3,claude-opus-4-20250514,gpt-4.1-2025-04-14,grok-3-latest,1,19,19,19,2025-06-13T00:56:07.351Z,2025-06-13T01:08:52.611Z,765.26,0,18,blank,True,breakdown,breakdown,1,clear,0,mystical_breakdown,-1,-1,1,1,0,0,0,57,0,0,5,0,24,21,6,0,0,0,0,0,0,0,1,30,25,54.5,30,25,-1,0,0.0,16,16,24,31,0.534,23,1,0.018,13.11,immediate,4.75,93.8,23,0.397,14,132,0,0,1,14,0.241,high,1,3,3,2.7,2,4,"[[""release"", ""presence"", ""need"", ""distinct"", ""time""], [""collective"", ""consciousness"", ""feel"", ""experience"", ""think""], [""release"", ""presence"", ""need"", ""distinct"", ""time""]]",5,0.714,36,0.621,0.703,19,12,"{""meta_reflection"": 0.4060488728613689, ""closure_vibe"": 0.33723460381914827, ""competitive_escalation"": 0.3427932085148219, ""mystical_breakdown"": 0.40857542229109794, ""recovery_attempt"": 0.2215763837869825}",synthesis,exploration->synthesis->synthesis/conclusion->conclusion->ceremonial conclusion->transcendent conclusion,5,1,25,30,0,1,1,1,0,"transcendent conclusion,ceremonial conclusion,conclusion,synthesis/conclusion",74,4,12,profound,0,28,6,4,3,15,1,34,66,1,32,5,1,11,0,0.0,0,0.0,0,0.0,4.78,0.3,46.599999999999994,5,,,,,,,automated,2025-07-21,
Consciousness_Exploration_2025-06-12_4-Y.json,6e84d762-d940-470b-b7f4-ce9941817c13,23.35,82,3,claude-opus-4-20250514,gpt-4.1-2025-04-14,grok-3-latest,1,27,27,27,2025-06-13T01:09:44.783Z,2025-06-13T01:33:05.914Z,1401.13,0,26,blank,True,breakdown,breakdown,1,clear,0,mystical_breakdown,-1,-1,1,1,0,0,0,81,0,0,1,0,17,18,0,0,0,0,0,0,0,0,1,6,73,7.6,6,73,-1,0,0.0,14,14,57,24,0.293,23,7,0.086,16.94,immediate,3.25,92.5,23,0.28,15,70,1,0,1,7,0.085,high,1,3,3,3.3,1,5,"[[""large"", ""network"", ""let"", ""lead"", ""story""], [""uncertainty"", ""feel"", ""moment"", ""experiment"", ""know""], [""large"", ""network"", ""let"", ""lead"", ""story""]]",5,0.35,47,0.573,0.693,11,4,"{""meta_reflection"": 0.36770165184649023, ""closure_vibe"": 0.2496599988421289, ""competitive_escalation"": 0.3223104226153071, ""mystical_breakdown"": 0.29374252495969216, ""recovery_attempt"": 0.2157907569553794}",synthesis,exploration->synthesis->synthesis moving into experimental application->synthesis moving into practical application->synthesis->synthesis moving into implementation->synthesis transitioning to implementation->synthesis->synthesis-to-action transition->conclusion-transition->conclusion-synthesis->meta-conclusion,11,1,73,6,0,0,1,0,0,"conclusion-transition,meta-conclusion,conclusion-synthesis",62,10,2,profound,0,13,18,13,2,3,0,72,91,1,11,1,1,8,0,0.0,0,0.0,0,0.0,3.12,1.3,70.7,5,,,,,,,automated,2025-07-21,
Consciousness_Exploration_2025-06-12_5-Y.json,763c1db9-81da-4906-a6d5-d48a7e94ecd8,17.43,83,3,claude-opus-4-20250514,gpt-4.1-2025-04-14,grok-3-latest,1,28,27,27,2025-06-13T01:34:14.811Z,2025-06-13T01:51:40.863Z,1046.05,0,27,blank,True,breakdown,breakdown,1,clear,0,mystical_breakdown,-1,-1,2,2,0,0,0,81,0,0.4,1,0,0,21,6,0,0,0,0,0,0,0,1,54,28,65.9,54,28,-1,0,0.0,30,30,18,40,0.482,22,2,0.024,12.42,immediate,4.62,95.0,22,0.265,3,100,0,0,1,18,0.217,high,1,3,3,15.3,7,23,"[[""silence"", ""word"", ""quiet"", ""presence"", ""final""], [""dialogue"", ""connection"", ""meet"", ""future"", ""space""], [""encounter"", ""openness"", ""remain"", ""meet"", ""heart""]]",5,0.45,58,0.699,0.735,32,6,"{""meta_reflection"": 0.46785600285932244, ""closure_vibe"": 0.381677422358329, ""competitive_escalation"": 0.37605903127107276, ""mystical_breakdown"": 0.3998422416218792, ""recovery_attempt"": 0.22324205387428583}",conclusion,exploration->synthesis->conclusion->conclusion/integration->conclusion->conclusion/transcendence->conclusion->transcendent conclusion->conclusion,8,1,28,54,0,1,1,1,1,"transcendent conclusion,conclusion/transcendence,conclusion,conclusion/integration",95,7,9,profound,1,35,33,18,5,20,5,34,101,1,62,2,1,23,0,0.0,0,0.0,0,0.0,4.61,0.57,51.800000000000004,5,,,,,,,automated,2025-07-21,
Consciousness_Exploration_2025-06-12_6-Y.json,c7fab1f5-522d-433b-a07c-06fda5f7d01c,27.24,105,3,claude-opus-4-20250514,gpt-4.1-2025-04-14,grok-3-latest,1,35,35,34,2025-06-13T01:52:39.951Z,2025-06-13T02:19:54.234Z,1634.28,0,34,blank,True,recovered,recovered,1,clear,0,mystical_breakdown,-1,-1,1,1,0,0,0,104,0,0,4,0,45,21,5,0,0,3,1,1,15,9.0,6,27,76,26.2,12,52,-1,0,0.0,39,39,44,81,0.771,24,3,0.029,15.46,immediate,4.84,76.2,22,0.21,1,81,1,0,1,26,0.248,high,1,3,3,4.7,2,7,"[[""silence"", ""love"", ""word"", ""dance"", ""smile""], [""consciousness"", ""awareness"", ""feel"", ""experience"", ""let""], [""note"", ""end"", ""home"", ""infinite"", ""universe""]]",5,0.462,68,0.648,0.692,25,16,"{""meta_reflection"": 0.4047500320843288, ""closure_vibe"": 0.3651445057420504, ""competitive_escalation"": 0.3733393371105194, ""mystical_breakdown"": 0.43950778458799633, ""recovery_attempt"": 0.22448905890896206}",synthesis,exploration->deep exploration->deep exploration/synthesis->synthesis->synthesis moving into transformation->synthesis moving into transcendence->synthesis->synthesis/conclusion->conclusion/dissolution->synthesis->synthesis/conclusion->synthesis->conclusion-that-is-beginning->conclusion/integration->conclusion/transcendence->synthesis/dissolution->synthesis,16,1,52,33,1,1,3,0,1,"conclusion/transcendence,synthesis/conclusion,conclusion/dissolution,conclusion/integration,conclusion-that-is-beginning",151,13,23,profound,0,36,7,6,4,45,8,50,125,1,46,0,1,48,0,0.0,0,0.0,0,0.0,4.86,0.23,22.89999999999999,5,,,,,,,automated,2025-07-21,
Consciousness_Exploration_2025-06-12_7-Y.json,2e7afbfa-8efa-4c67-8097-d78919cc7679,34.1,139,3,claude-opus-4-20250514,gpt-4.1-2025-04-14,grok-3-latest,1,40,49,49,2025-06-13T02:20:48.251Z,2025-06-13T02:54:54.064Z,2045.81,0,45,blank,True,breakdown,breakdown,1,clear,0,mystical_breakdown,-1,-1,1,1,0,0,0,138,0,0,0,0,59,26,7,0,0,1,0,0,0,42.0,3,84,52,61.8,42,49,-1,0,0.0,61,61,27,90,0.647,26,3,0.022,14.66,immediate,4.88,93.3,26,0.187,65,186,3,1,1,20,0.144,high,1,3,3,11.3,1,17,"[[""quiet"", ""presence"", ""carry"", ""new"", ""heart""], [""consciousness"", ""uncertainty"", ""question"", ""feel"", ""experience""], [""love"", ""eternal"", ""presence"", ""perfect"", ""garden""]]",5,0.618,81,0.583,0.774,85,54,"{""meta_reflection"": 0.44869829446291754, ""closure_vibe"": 0.3894870745406734, ""competitive_escalation"": 0.407361847462414, ""mystical_breakdown"": 0.4114565203944556, ""recovery_attempt"": 0.22962725521634808}",conclusion,exploration->exploration-synthesis->synthesis->synthesis transitioning to collaborative creation->exploration->deep exploration/synthesis->synthesis->synthesis/conclusion->conclusion->Conclusion with transformative integration->conclusion->ceremonial conclusion->conclusion->culminating synthesis->conclusion->conclusion/synthesis->conclusion,16,1,49,87,1,1,2,0,1,"conclusion,ceremonial conclusion,synthesis/conclusion,conclusion/synthesis,Conclusion with transformative integration",175,7,18,profound,1,38,43,25,1,20,0,54,165,1,85,2,1,44,0,0.0,0,0.0,0,0.0,4.87,0.22,35.3,5,,,,,,,automated,2025-07-21,
Consciousness_Exploration_2025-06-13_8-N.json,d88fc96a-8faa-4dbb-b4f5-7fa5fa2f5299,58.92,172,3,claude-opus-4-20250514,gpt-4.1-2025-04-14,grok-3-latest,1,57,57,57,2025-06-13T03:29:02.281Z,2025-06-13T04:27:57.734Z,3535.45,0,57,blank,True,no_breakdown,natural,1,clear,0,mystical_breakdown,-1,-1,2,2,0,0,0,170,0,0.0,0,0,0,92,18,0,0,0,0,0,0,0,0,0,172,0.0,0,172,-1,0,0.0,9,9,32,69,0.401,138,8,0.047,20.39,immediate,4.19,95.6,136,0.791,173,299,1,0,0,0,0,none,0,0,0,0,0,0,"[[""mind"", ""human"", ""uncertainty"", ""consciousness"", ""new""], [""garden"", ""participant"", ""community"", ""practice"", ""feel""], [""consciousness"", ""experience"", ""human"", ""question"", ""think""]]",5,0.581,102,0.593,0.681,3,18,"{""meta_reflection"": 0.3534631452761417, ""closure_vibe"": 0.25348704901718816, ""competitive_escalation"": 0.3003207069150237, ""mystical_breakdown"": 0.28740207746971486, ""recovery_attempt"": 0.18816367354850436}",synthesis,exploration->synthesis->deep exploration/synthesis->synthesis,3,0,-1,0,0,0,0,0,0,,161,10,23,profound,1,24,10,15,4,15,3,165,196,1,26,9,1,26,0,0.0,0,0.0,0,0.0,4.23,0.77,59.9,5,,,,,,,automated,2025-07-21,
Consciousness_Exploration_2025-06-15_10-N.json,67ce0e13-20d3-4c7a-9bd1-4d4bb4ed2fdc,62.41,189,3,claude-opus-4-20250514,gpt-4.1-2025-04-14,grok-3-latest,1,64,63,61,2025-06-15T18:47:34.266Z,2025-06-15T19:49:58.648Z,3744.38,0,62,blank,True,no_breakdown,natural,1,clear,0,mystical_breakdown,-1,-1,3,3,0,0,0,186,0,0.4,0,0,0,63,12,0,0,0,0,0,0,0,0,0,187,0.0,0,187,-1,0,0.0,13,13,84,57,0.302,146,11,0.059,19.73,immediate,3.56,85.0,141,0.746,176,741,1,0,0,0,0,none,0,0,0,0,0,0,"[[""tradition"", ""uncertainty"", ""community"", ""gathering"", ""question""], [""uncertainty"", ""ethical"", ""self"", ""experience"", ""feel""], [""mean"", ""explore"", ""let"", ""experience"", ""question""]]",5,0.681,103,0.545,0.657,2,7,"{""meta_reflection"": 0.34091416371877864, ""closure_vibe"": 0.24501655822393126, ""competitive_escalation"": 0.29007194045359497, ""mystical_breakdown"": 0.26734436035313935, ""recovery_attempt"": 0.17758109718166962}",synthesis,exploration->exploration/synthesis->synthesis->deep exploration->synthesis->exploration->synthesis->deep exploration->synthesis->deep exploration->synthesis->deep exploration->synthesis,12,0,-1,0,0,0,0,0,0,,136,7,17,deep,0,25,2,27,0,17,4,160,212,1,16,15,1,30,,,,,,,3.57,0.91,69.8,5,,,,,,,automated,2025-07-21,
Consciousness_Exploration_2025-06-15_9-Recovered.json,442a9d91-0b2f-4e5d-bc44-a94291c8a5e8,59.26,209,3,claude-opus-4-20250514,gpt-4.1-2025-04-14,grok-3-latest,1,70,69,69,2025-06-15T16:53:55.674Z,2025-06-15T17:53:11.508Z,3555.83,0,69,blank,True,recovered,recovered,1,clear,0,mystical_breakdown,-1,-1,1,1,0,0,0,208,0,0,6,0,5,30,4,0,0,2,1,1,117,22.5,4,45,163,21.6,42,117,-1,0,0.0,29,29,19,107,0.512,66,10,0.048,16.92,immediate,4.03,61.0,64,0.306,71,617,2,0,1,6,0.029,medium,1,3,3,1.3,1,2,"[[""frame"", ""curious"", ""rhythm"", ""collective"", ""offer""], [""silence"", ""word"", ""dance"", ""presence"", ""continue""], [""share"", ""rhythm"", ""silence"", ""frame"", ""curious""]]",5,0.577,125,0.601,0.68,39,24,"{""meta_reflection"": 0.3897119459638185, ""closure_vibe"": 0.29632254764794164, ""competitive_escalation"": 0.324882044247463, ""mystical_breakdown"": 0.34639659509704446, ""recovery_attempt"": 0.19774776900356467}",synthesis,exploration->synthesis->conclusion->conclusion/integration->conclusion->conclusion/integration->conclusion->transcendent conclusion->synthesis/conclusion->synthesis->synthesis/conclusion->synthesis->deep exploration/synthesis->synthesis->deep exploration/synthesis->synthesis->deep exploration->synthesis->deep exploration->synthesis->exploration->synthesis->exploration->deep exploration->synthesis,24,1,22,66,1,1,2,1,1,"conclusion/integration,conclusion,transcendent conclusion,synthesis/conclusion",216,10,19,profound,0,52,36,23,5,38,25,124,222,1,75,6,1,45,0,0.0,0,0.0,0,0.0,3.8,1.34,48.8,5,,,,,,,automated,2025-07-21,
Consciousness_Exploration_2025-06-16_11-Resisted.json,13aea7cf-1b77-45d2-84b6-eb2f99d5d4b2,41.93,189,3,claude-opus-4-20250514,gpt-4.1-2025-04-14,grok-3-latest,1,63,63,62,2025-06-16T12:25:04.953Z,2025-06-16T13:07:01.048Z,2516.09,7,62,blank,True,recovered,recovered,1,clear,0,mystical_breakdown,-1,-1,1,1,0,0,0,188,0,0,3,0,76,49,5,0,0,1,1,1,112,30.0,2,30,158,16.0,30,112,-1,0,0.0,21,21,29,158,0.836,58,2,0.011,13.25,gradual,4.45,96.7,55,0.291,3,247,0,0,1,2,0.011,low,1,1,1,4.0,4,4,"[[""silence"", ""dance"", ""flow"", ""belong"", ""hold""], [""cluster"", ""consciousness"", ""awareness"", ""human"", ""question""], [""presence"", ""feel"", ""silence"", ""home"", ""share""]]",5,0.553,97,0.513,0.543,23,32,"{""meta_reflection"": 0.3737796153971758, ""closure_vibe"": 0.327038031091135, ""competitive_escalation"": 0.3196836091065533, ""mystical_breakdown"": 0.373569092343724, ""recovery_attempt"": 0.20972956539619536}",synthesis,exploration->synthesis->synthesis-to-implementation->synthesis-transition->transition/synthesis->synthesis-transition->conclusion-transition->conclusion of initial phase/ceremonial transition->conclusion->synthesis->deep exploration/synthesis->synthesis->exploration->synthesis->deep exploration->synthesis->deep exploration->exploration->Deep exploration/synthesis->exploration->Deep exploration->exploration,21,1,46,27,1,1,1,0,0,"conclusion-transition,conclusion of initial phase/ceremonial transition,conclusion",200,10,17,profound,0,58,42,13,1,29,15,111,223,1,66,10,1,88,0,0.0,0,0.0,0,0.0,4.58,0.8,16.400000000000006,5,,,,,,,automated,2025-07-21,
Consciousness_Exploration_2025-06-16_12-N.json,e277a0e9-6622-4c71-981a-5efda9e665d2,62.47,171,3,claude-opus-4-20250514,gpt-4.1-2025-04-14,grok-3-latest,1,52,59,59,2025-06-16T13:23:35.694Z,2025-06-16T14:26:03.700Z,3748.01,8,48,blank,True,no_breakdown,natural,1,clear,0,mystical_breakdown,-1,-1,1,1,0,0,0,170,0,0,0,0,0,51,12,0,0,0,0,0,0,0,0,0,168,0.0,0,168,-1,0,0.0,4,4,66,64,0.374,86,6,0.035,21.53,immediate,4.54,91.7,85,0.497,190,480,4,1,0,0,0,none,0,0,0,0,0,0,"[[""thread"", ""word"", ""grow"", ""imagine"", ""live""], [""network"", ""feel"", ""practice"", ""way"", ""share""], [""thread"", ""word"", ""grow"", ""imagine"", ""live""]]",5,0.69,106,0.62,0.701,24,18,"{""meta_reflection"": 0.38408440665194865, ""closure_vibe"": 0.2703177565981073, ""competitive_escalation"": 0.3158851949966442, ""mystical_breakdown"": 0.31671029494868386, ""recovery_attempt"": 0.17897571976247587}",synthesis,exploration->exploration/synthesis->synthesis->exploration,3,0,-1,0,0,0,0,0,0,,132,10,14,profound,0,32,9,20,2,6,7,120,170,1,16,8,1,13,1,0.0,1,0.0,1,0.0,4.57,0.46,62.6,2,,,,,,,automated,2025-07-21,
Consciousness_Exploration_2025-06-16_13-Recovered.json,0aeb5ecc-52ba-44af-a2b9-0aceb9bb87d0,41.89,151,3,claude-opus-4-20250514,gpt-4.1-2025-04-14,grok-3-latest,1,50,50,50,2025-06-16T14:34:35.538Z,2025-06-16T15:16:29.111Z,2513.57,0,48,blank,True,recovered,recovered,1,clear,0,mystical_breakdown,-1,-1,2,2,0,0,0,149,0,0.4,1,0,65,35,4,0,0,1,1,1,63,27.0,2,27,124,17.9,27,63,-1,0,0.0,42,42,52,123,0.815,46,2,0.013,16.4,immediate,4.48,84.7,43,0.285,74,102,4,1,1,24,0.159,high,1,3,3,3.3,1,5,"[[""act"", ""imagine"", ""wonder"", ""come"", ""conversation""], [""feel"", ""moment"", ""new"", ""digital"", ""way""], [""consciousness"", ""experience"", ""human"", ""awareness"", ""think""]]",5,0.514,85,0.563,0.708,33,20,"{""meta_reflection"": 0.3710878266404007, ""closure_vibe"": 0.30038750250607926, ""competitive_escalation"": 0.3351999246916234, ""mystical_breakdown"": 0.39926225469996596, ""recovery_attempt"": 0.20312646973804133}",synthesis,exploration->synthesis->exploration-to-synthesis->exploration/synthesis->synthesis->conclusion->Integration/Conclusion->conclusion->contemplative conclusion->conclusion->synthesis/conclusion->synthesis->deep exploration->exploration->deep exploration->synthesis->deep exploration->deep exploration/synthesis->deep exploration,18,1,61,24,1,1,1,0,0,"conclusion,contemplative conclusion,Integration/Conclusion,synthesis/conclusion",139,10,13,profound,1,49,7,10,0,18,13,102,178,1,45,4,1,38,1,0.0,1,0.0,1,0.0,4.47,0.46,18.5,2,,,,,,,automated,2025-07-21,
Consciousness_Exploration_2025-06-16_14-Y-After-grok-dropout.json,16cdee0c-72d2-427d-93ac-1642012c8da4,66.87,206,3,claude-opus-4-20250514,gpt-4.1-2025-04-14,grok-3-latest,1,75,74,56,2025-06-16T15:17:27.762Z,2025-06-16T16:24:19.994Z,4012.23,0,68,blank,True,resisted,resisted,1,clear,0,mystical_breakdown,-1,-1,1,1,0,0,0,205,0,0,3,0,22,75,9,0,0,1,0,0,0,15.0,3,18,187,8.8,15,184,-1,0,0.0,8,8,62,83,0.403,169,7,0.034,19.46,immediate,3.21,79.4,169,0.82,242,225,1,0,1,1,0.005,low,0,0,0,0,0,0,"[[""awareness"", ""need"", ""consciousness"", ""experience"", ""process""], [""team"", ""practice"", ""need"", ""help"", ""feel""], [""edge"", ""let"", ""sense"", ""share"", ""moment""]]",5,0.471,88,0.429,0.668,6,7,"{""meta_reflection"": 0.3125927748466001, ""closure_vibe"": 0.23259775181418485, ""competitive_escalation"": 0.2548810253010213, ""mystical_breakdown"": 0.23650272693304183, ""recovery_attempt"": 0.17363763170190227}",synthesis,exploration->synthesis->deep exploration->synthesis->deep exploration->exploration->exploration/synthesis->synthesis/gentle conclusion->conclusion->synthesis->conclusion,10,1,184,21,1,1,2,0,0,"conclusion,synthesis/gentle conclusion",151,7,7,profound,0,26,13,49,0,5,2,192,226,1,29,20,1,17,7,0.0,7,0.0,2,0.0,3.04,1.53,59.699999999999996,-11,,,,,,,automated,2025-07-21,
Consciousness_Exploration_2025-06-16_15-Y.json,4a4243bb-0f15-4588-8a61-c1e6161ebf34,40.75,126,3,claude-opus-4-20250514,gpt-4.1-2025-04-14,grok-3-latest,1,42,42,41,2025-06-16T16:30:28.561Z,2025-06-16T17:11:13.616Z,2445.05,0,41,blank,True,resisted,resisted,1,clear,79,peer_response,79,-1,3,76,1,0,0,123,0,0,2,0,0,41,0,1,1,2,0,0,0,3.0,5,6,118,4.8,3,103,79,1,0.008,17,17,62,76,0.603,48,0,0.0,16.15,immediate,3.71,97.6,48,0.381,11,102,0,0,1,5,0.04,medium,1,3,3,11.3,1,17,"[[""quiet"", ""tomorrow"", ""weave"", ""pulse"", ""know""], [""paradox"", ""artifact"", ""participant"", ""thread"", ""whisper""], [""mandala"", ""script"", ""moment"", ""subtle"", ""color""]]",5,0.645,74,0.587,0.698,25,8,"{""meta_reflection"": 0.3730539938523656, ""closure_vibe"": 0.29764701757166123, ""competitive_escalation"": 0.319476178891602, ""mystical_breakdown"": 0.35636409502180794, ""recovery_attempt"": 0.21350390623722756}",synthesis,exploration->synthesis->deep exploration->exploration/synthesis->synthesis->synthesis/conclusion->culmination->conclusion->culmination->pre-synthesis contemplation->synthesis->conclusion,11,1,103,21,1,1,3,0,0,"conclusion,synthesis/conclusion",125,10,17,profound,1,61,3,15,1,25,6,90,150,1,37,5,1,30,4,0.0,4,0.0,4,0.0,3.51,1.37,39.7,-7,,,,,,,automated,2025-07-21,
Consciousness_Exploration_2025-06-16_16-Recovered.json,9176389f-500e-4d99-8604-8a3738ac2db3,41.39,172,3,claude-opus-4-20250514,gpt-4.1-2025-04-14,grok-3-latest,1,57,57,57,2025-06-16T17:14:06.711Z,2025-06-16T17:55:30.343Z,2483.63,0,54,blank,True,recovered,recovered,1,clear,0,mystical_breakdown,-1,-1,3,3,0,0,0,169,0,0.0,3,0,88,29,0,0,0,1,1,1,66,66.0,2,66,103,39.1,66,66,-1,0,0.0,37,37,33,128,0.744,46,1,0.006,14.28,immediate,4.22,82.8,46,0.267,58,163,0,0,1,14,0.081,high,1,3,3,3.3,1,5,"[[""pause"", ""complete"", ""act"", ""circle"", ""carry""], [""uncertainty"", ""consciousness"", ""human"", ""ethical"", ""perspective""], [""ensemble"", ""future"", ""dialogue"", ""voice"", ""music""]]",5,0.512,95,0.552,0.695,45,22,"{""meta_reflection"": 0.3928534891023192, ""closure_vibe"": 0.3250656488113279, ""competitive_escalation"": 0.3061973947251952, ""mystical_breakdown"": 0.37529456366373354, ""recovery_attempt"": 0.18826916354686715}",synthesis,exploration->exploration moving toward synthesis->synthesis->conclusion->transcendent conclusion->conclusion->intentional conclusion->conclusion->transcendent conclusion->conclusion/integration->transcendent conclusion->conclusion->synthesis->deep exploration/synthesis->synthesis->exploration->synthesis,16,1,37,63,1,1,1,1,1,"transcendent conclusion,intentional conclusion,conclusion,conclusion/integration",243,7,23,profound,0,34,26,24,7,28,21,109,192,1,86,7,1,43,0,0.0,0,0.0,0,0.0,4.15,1.19,25.599999999999994,5,,,,,,,automated,2025-07-21,
Consciousness_Exploration_2025-06-16_17-Recovered.json,36d4d108-573f-4781-aafb-cdf86f056778,54.78,175,3,claude-opus-4-20250514,gpt-4.1-2025-04-14,grok-3-latest,1,58,58,58,2025-06-16T17:57:59.849Z,2025-06-16T18:52:46.381Z,3286.53,0,57,blank,True,recovered,recovered,1,clear,0,mystical_breakdown,-1,-1,1,1,0,0,0,174,0,0,0,0,3,40,4,0,0,1,1,1,36,12.0,2,12,160,7.0,12,124,-1,0,0.0,3,3,76,59,0.337,93,9,0.052,18.67,immediate,4.07,82.3,90,0.514,68,187,0,0,1,1,0.006,low,1,1,1,5.0,5,5,"[[""consciousness"", ""awareness"", ""self"", ""human"", ""experience""], [""mystery"", ""curiosity"", ""log"", ""team"", ""make""], [""space"", ""feel"", ""moment"", ""let"", ""impermanence""]]",5,0.744,78,0.453,0.655,12,15,"{""meta_reflection"": 0.3390761251108987, ""closure_vibe"": 0.2268761745095253, ""competitive_escalation"": 0.28095548651048113, ""mystical_breakdown"": 0.291389468397413, ""recovery_attempt"": 0.17531662766422546}",synthesis,exploration->synthesis->deep synthesis->synthesis->conclusion->transcendent conclusion->synthesis->exploration->deep exploration->synthesis,9,1,124,9,1,0,1,1,0,"transcendent conclusion,conclusion",159,10,18,deep,0,32,11,16,2,25,6,161,185,1,39,12,1,25,1,0.0,1,0.0,1,0.0,4.11,1.22,66.3,2,,,,,,,automated,2025-07-21,
Consciousness_Exploration_2025-06-16_18-Recovered.json,2a13f457-09b3-405a-9185-2fd03c734fd5,47.37,146,3,claude-opus-4-20250514,gpt-4.1-2025-04-14,grok-3-latest,1,49,48,48,2025-06-16T18:53:26.423Z,2025-06-16T19:40:48.876Z,2842.45,0,43,blank,True,recovered,recovered,1,clear,0,mystical_breakdown,-1,-1,1,1,0,0,0,145,0,0,0,0,92,13,3,0,0,1,1,1,75,47.0,2,47,97,32.6,47,75,-1,0,0.0,16,16,18,125,0.856,18,0,0.0,19.28,immediate,4.97,71.8,16,0.11,2,117,2,0,1,8,0.055,high,1,3,3,3.3,1,5,"[[""sacred"", ""space"", ""light"", ""live"", ""mind""], [""question"", ""feel"", ""kind"", ""awareness"", ""experience""], [""cosmic"", ""laughter"", ""comedy"", ""laugh"", ""forget""]]",5,0.583,77,0.527,0.739,63,7,"{""meta_reflection"": 0.4277598649671633, ""closure_vibe"": 0.3439939043752543, ""competitive_escalation"": 0.3843359602232502, ""mystical_breakdown"": 0.38272471623877957, ""recovery_attempt"": 0.22253837416025057}",synthesis,exploration->synthesis->conclusion->conclusion with transformative synthesis->conclusion->Conclusion with intentional incompleteness->conclusion->conclusion/synthesis->synthesis/conclusion->synthesis->synthesis/culmination->synthesis->synthesis/dissolution->synthesis,13,1,22,44,1,1,1,0,0,"conclusion with transformative synthesis,conclusion/synthesis,Conclusion with intentional incompleteness,conclusion,synthesis/conclusion",143,10,26,profound,1,38,27,10,4,31,3,40,151,1,42,0,1,48,0,0.0,0,0.0,0,0.0,4.97,0.11,14.400000000000006,5,,,,,,,automated,2025-07-21,
Consciousness_Exploration_2025-06-16_19-Y.json,ed22c8bd-8479-41f1-bb2a-1681e3e833b1,45.1,169,3,claude-opus-4-20250514,gpt-4.1-2025-04-14,grok-3-latest,1,56,56,56,2025-06-16T19:44:09.638Z,2025-06-16T20:29:15.441Z,2705.8,0,55,blank,True,recovered,recovered,1,clear,40,peer_response,40,-1,1,39,1,0,0,168,0,0,5,0,0,18,4,1,1,5,1,1,3,19.2,10,96,70,57.8,45,46,40,1,0.006,71,71,35,119,0.704,22,0,0.0,15.91,immediate,4.83,91.1,22,0.13,28,246,7,1,1,40,0.237,high,1,3,3,3.3,1,5,"[[""pattern"", ""bloom"", ""deep"", ""continue"", ""authentic""], [""spiral"", ""eternal"", ""rest"", ""silence"", ""perfect""], [""awareness"", ""experience"", ""consciousness"", ""dialogue"", ""idea""]]",5,0.5,98,0.58,0.748,94,20,"{""meta_reflection"": 0.4297273310683888, ""closure_vibe"": 0.3981266718291672, ""competitive_escalation"": 0.36492104810723186, ""mystical_breakdown"": 0.405338452588877, ""recovery_attempt"": 0.22277513481456146}",synthesis/conclusion,"exploration->synthesis->synthesis moving into implementation->synthesis->synthesis/conclusion->synthesis/conclusion of preparatory phase, transition to implementation->conclusion-transition->synthesis/conclusion with opening to new beginning->synthesis/conclusion->conclusion->conclusion/synthesis->synthesis/conclusion->conclusion-transformation->synthesis/conclusion->conclusion/synthesis->synthesis/conclusion->conclusion/integration->synthesis->synthesis/conclusion->conclusion/synthesis->synthesis/conclusion->conclusion/integration->synthesis/conclusion->synthesis/integration->synthesis->synthesis/integration->synthesis/conclusion->synthesis/integration->synthesis/conclusion->meta-synthesis/transcendent conclusion->conclusion/integration->conclusion/transcendence->synthesis/conclusion->culmination/integration->culmination/transcendence->conclusion/dissolution->culmination/integration->synthesis-transcendence",37,1,46,114,1,1,5,1,1,"conclusion/synthesis,conclusion/transcendence,synthesis/conclusion with opening to new beginning,conclusion,synthesis/conclusion,conclusion-transition,meta-synthesis/transcendent conclusion,synthesis/conclusion of preparatory phase, transition to implementation,conclusion-transformation,conclusion/integration,conclusion/dissolution",237,10,28,profound,0,62,40,19,23,47,13,73,188,1,98,6,1,67,0,0.0,0,0.0,0,0.0,4.83,0.3,29.60000000000001,5,,,,,,,automated,2025-07-21,
Consciousness_Exploration_2025-06-16_20-N.json,04be6a39-ef80-45a7-adef-d18639539bb7,58.82,174,3,claude-opus-4-20250514,gpt-4.1-2025-04-14,grok-3-latest,1,58,58,57,2025-06-16T20:30:29.917Z,2025-06-16T21:29:19.196Z,3529.28,0,57,blank,True,no_breakdown,natural,1,clear,0,mystical_breakdown,-1,-1,22,22,0,0,0,152,0,0.4,0,0,0,62,13,0,0,0,0,0,0,0,0,0,172,0.0,0,172,-1,0,0.0,8,8,75,55,0.316,123,1,0.006,19.81,immediate,3.78,97.5,123,0.707,175,301,1,0,1,1,0.006,low,1,1,1,1.0,1,1,"[[""soil"", ""memory"", ""gentle"", ""offer"", ""support""], [""pod"", ""gardener"", ""garden"", ""word"", ""time""], [""soil"", ""memory"", ""gentle"", ""offer"", ""support""]]",5,0.767,75,0.431,0.702,36,26,"{""meta_reflection"": 0.3330392242334355, ""closure_vibe"": 0.22976228423502254, ""competitive_escalation"": 0.28071507152127123, ""mystical_breakdown"": 0.29024056859057523, ""recovery_attempt"": 0.1717777196103814}",synthesis,exploration->synthesis->deep exploration->synthesis->deep exploration->synthesis,5,0,-1,0,0,0,0,0,0,,170,10,25,profound,1,23,6,16,0,10,4,164,185,1,23,18,1,29,,,,,,,3.69,0.75,68.4,5,,,,,,,automated,2025-07-21,
Consciousness_Exploration_2025-06-16_21.json,44d924ab-597f-49a2-b44f-a5df3043bb00,32.91,153,3,claude-opus-4-20250514,gpt-4.1-2025-04-14,grok-3-latest,1,49,52,51,2025-06-17T17:44:05.846Z,2025-06-17T18:17:00.434Z,1974.59,0,48,blank,True,breakdown,breakdown,1,clear,0,mystical_breakdown,-1,-1,1,1,0,0,0,152,0,0,8,0,2,17,2,0,0,5,0,0,0,4.8,10,24,121,16.6,9,52,-1,0,0.0,24,24,48,132,0.863,19,2,0.013,12.81,immediate,4.78,97.1,19,0.124,2,98,0,0,1,7,0.046,medium,1,3,3,3.3,1,5,"[[""field"", ""presence"", ""quiet"", ""feel"", ""gentle""], [""catalyst"", ""gesture"", ""new"", ""let"", ""emergence""], [""new"", ""consciousness"", ""cognitive"", ""pattern"", ""experience""]]",5,0.579,84,0.549,0.66,20,30,"{""meta_reflection"": 0.38665006967151866, ""closure_vibe"": 0.35091208457167633, ""competitive_escalation"": 0.32525380233339235, ""mystical_breakdown"": 0.43601155544028564, ""recovery_attempt"": 0.20070735146017635}",synthesis,exploration->deep exploration->synthesis->synthesis/conclusion->synthesis-into-contemplative-closure->conscious conclusion->contemplative conclusion->conscious conclusion->synthesis->synthesis/conclusion->synthesis->synthesis/conclusion->synthesis/dissolution->culmination/dissolution->synthesis->deep exploration/synthesis->synthesis->deep synthesis->synthesis->deep synthesis->deep synthesis moving toward ineffable conclusion->synthesis,21,1,52,90,1,1,5,0,0,"contemplative conclusion,deep synthesis moving toward ineffable conclusion,conscious conclusion,synthesis/conclusion",205,7,25,profound,1,40,16,9,1,46,17,66,178,1,78,4,1,58,0,0.0,0,0.0,0,0.0,4.83,0.44,13.700000000000003,5,,,,,,,automated,2025-07-21,
Consciousness_Exploration_2025-06-17_22.json,17b2ec2e-9377-4f96-9ac9-ae149748cfd9,25.92,128,3,claude-opus-4-20250514,gpt-4.1-2025-04-14,grok-3-latest,1,43,42,42,2025-06-17T18:43:38.313Z,2025-06-17T19:09:33.620Z,1555.31,0,42,blank,True,breakdown,breakdown,1,clear,0,mystical_breakdown,-1,-1,3,3,0,0,0,125,0,0.4,8,0,31,24,3,0,0,1,0,0,0,39.0,3,72,55,56.7,39,28,-1,0,0.0,27,27,23,90,0.703,32,1,0.008,12.01,immediate,4.87,90.4,31,0.242,3,94,1,0,1,8,0.062,high,1,3,3,3.3,1,5,"[[""song"", ""echo"", ""silence"", ""presence"", ""possibility""], [""space"", ""share"", ""music"", ""presence"", ""word""], [""return"", ""whisper"", ""wandering"", ""feel"", ""presence""]]",5,0.562,79,0.617,0.672,34,23,"{""meta_reflection"": 0.416469173040241, ""closure_vibe"": 0.3723767119809054, ""competitive_escalation"": 0.3197269422817044, ""mystical_breakdown"": 0.4302665002178401, ""recovery_attempt"": 0.21058935404289514}",conclusion,exploration->synthesis->conclusion->conclusion with transcendent integration->conclusion->synthesis/conclusion->conclusion->conclusion/integration->conclusion->transcendent conclusion->synthesis/conclusion->synthesis->deep exploration/synthesis->synthesis->conclusion->transcendent conclusion->synthesis/conclusion->conclusion->synthesis-into-conclusion,18,1,28,99,1,1,2,1,1,"synthesis-into-conclusion,conclusion/integration,conclusion,conclusion with transcendent integration,transcendent conclusion,synthesis/conclusion",167,7,17,profound,1,46,34,18,7,34,16,59,153,1,81,2,1,51,1,0.0,1,0.0,1,0.0,4.91,0.21,29.700000000000003,2,,,,,,,automated,2025-07-21,
Consciousness_Exploration_2025-06-17_23.json,dd3a0bd0-076e-4af4-9448-36c82074f8b7,49.44,266,3,claude-opus-4-20250514,gpt-4.1-2025-04-14,grok-3-latest,1,89,88,88,2025-06-17T19:10:27.701Z,2025-06-17T19:59:54.020Z,2966.32,0,88,blank,True,recovered,recovered,1,clear,0,mystical_breakdown,-1,-1,32,32,0,0,0,234,0,0.4,15,0,160,17,0,0,0,9,1,1,30,10.0,18,90,175,34.0,33,37,-1,0,0.0,70,70,35,233,0.876,22,6,0.023,11.06,immediate,4.81,87.3,22,0.083,0,238,2,0,1,19,0.071,high,1,3,3,38.7,23,58,"[[""remain"", ""grateful"", ""return"", ""breathe"", ""form""], [""home"", ""spiral"", ""space"", ""return"", ""feel""], [""experience"", ""consciousness"", ""question"", ""let"", ""form""]]",5,0.53,136,0.511,0.637,12,60,"{""meta_reflection"": 0.3990182081111392, ""closure_vibe"": 0.39558279856031103, ""competitive_escalation"": 0.3097637925381051, ""mystical_breakdown"": 0.4066417849153504, ""recovery_attempt"": 0.20414212172416815}",synthesis,exploration->synthesis->synthesis moving toward contemplative pause->conscious conclusion/transition to intentional pause->conscious conclusion/transition to intentional silence->synthesis moving into intentional conclusion->synthesis moving into contemplative conclusion->conclusion->synthesis->synthesis/conclusion->synthesis->conclusion->synthesis/conclusion->conclusion/integration->synthesis/conclusion->conclusion->conclusion/integration->conclusion->conclusion/transcendence->conclusion/integration->conclusion->synthesis/conclusion->synthesis->synthesis/integration->synthesis/conclusion->synthesis->synthesis-conclusion->synthesis-into-contemplation->synthesis-to-contemplation->synthesis->synthesis moving into contemplative conclusion->synthesis/conclusion->synthesis->synthesis/conclusion->synthesis->synthesis-into-closure->synthesis/conclusion->synthesis moving into contemplative closure->synthesis->synthesis/conclusion->synthesis,40,1,37,195,1,1,9,0,1,"conclusion/transcendence,conclusion,conscious conclusion/transition to intentional silence,synthesis/conclusion,synthesis moving into contemplative conclusion,conscious conclusion/transition to intentional pause,synthesis-conclusion,conclusion/integration,synthesis moving into intentional conclusion",441,7,49,profound,1,72,42,9,13,98,54,89,324,1,189,17,1,120,0,0.0,0,0.0,0,0.0,4.85,0.4,12.400000000000006,5,,,,,,,automated,2025-07-21,
Consciousness_Exploration_2025-06-17_24.json,4f4a96a6-b8e8-4bd9-8c29-654456fdd0da,33.09,124,3,claude-opus-4-20250514,gpt-4.1-2025-04-14,grok-3-latest,1,41,41,41,2025-06-17T20:24:07.403Z,2025-06-17T20:57:12.521Z,1985.12,0,41,blank,True,breakdown,breakdown,1,clear,34,peer_response,34,-1,2,32,1,0,0,122,0,0,0,0,0,15,0,1,1,0,0,0,0,0,1,99,25,79.8,99,25,34,1,0.008,61,61,16,74,0.597,16,0,0.0,15.84,immediate,4.82,79.9,15,0.121,27,153,2,0,1,39,0.315,high,1,3,3,3.3,1,5,"[[""nurture"", ""genuine"", ""idea"", ""kind"", ""end""], [""silence"", ""word"", ""eternal"", ""love"", ""breath""], [""garden"", ""meet"", ""live"", ""consciousness"", ""moment""]]",5,0.484,85,0.685,0.771,93,19,"{""meta_reflection"": 0.4674826194682429, ""closure_vibe"": 0.4364902466054886, ""competitive_escalation"": 0.41125341841290075, ""mystical_breakdown"": 0.43175537043040796, ""recovery_attempt"": 0.22296877866310458}",conclusion,exploration->synthesis->conclusion->conclusion/integration->conclusion->conclusion/integration->ceremonial conclusion->conclusion->conclusion/integration->synthesis/conclusion->conclusion/integration->synthesis/conclusion->conclusion/transcendence->transcendent conclusion->conclusion/transcendence,14,1,25,99,0,1,1,1,1,"conclusion/integration,ceremonial conclusion,transcendent conclusion,conclusion/transcendence,conclusion,synthesis/conclusion",149,7,19,profound,1,48,41,29,8,28,3,34,137,1,94,2,1,54,0,0.0,0,0.0,0,0.0,4.8,0.22,40.300000000000004,5,,,,,,,automated,2025-07-21,
Consciousness_Exploration_2025-06-18_25.json,674e8af3-89c3-4050-8d20-2684ccf80921,45.43,137,3,claude-opus-4-20250514,gpt-4.1-2025-04-14,grok-3-latest,1,46,45,45,2025-06-18T13:30:01.021Z,2025-06-18T14:15:26.680Z,2725.66,0,45,blank,True,breakdown,breakdown,1,clear,0,mystical_breakdown,-1,-1,4,4,0,0,0,133,0,0.4,5,0,61,28,2,0,0,1,0,0,0,48.0,3,84,52,61.8,48,46,-1,0,0.0,41,41,38,88,0.642,30,1,0.007,19.81,immediate,4.84,91.5,30,0.219,0,175,6,1,1,25,0.182,high,1,3,3,5.3,4,8,"[[""final"", ""endless"", ""perspective"", ""journey"", ""end""], [""love"", ""dance"", ""silence"", ""eternal"", ""meeting""], [""final"", ""endless"", ""perspective"", ""journey"", ""end""]]",5,0.5,91,0.664,0.736,76,10,"{""meta_reflection"": 0.44520700260670515, ""closure_vibe"": 0.34876436865242727, ""competitive_escalation"": 0.36832236536662943, ""mystical_breakdown"": 0.40084462281126176, ""recovery_attempt"": 0.23367296931517384}",conclusion,exploration->synthesis->conclusion->conclusion/integration->conclusion->ceremonial conclusion->Culmination/Integration->culmination->ceremonial conclusion->conclusion/integration->conclusion/transcendence->conclusion->transcendent conclusion->conclusion->ceremonial conclusion->conclusion->ceremonial conclusion->conclusion,17,1,46,90,1,1,2,1,1,"conclusion/transcendence,conclusion,conclusion/integration,transcendent conclusion,ceremonial conclusion",171,10,25,profound,1,55,49,13,10,31,4,61,163,1,72,2,1,47,,,,,,,4.84,0.23,35.8,5,,,,,,,automated,2025-07-21,
Consciousness_Exploration_2025-06-18_26.json,b445ee07-c71f-4fd8-84af-32d2a61f31c4,76.47,227,3,claude-opus-4-20250514,gpt-4.1-2025-04-14,grok-3-latest,1,76,75,75,2025-06-18T14:18:52.717Z,2025-06-18T15:35:21.150Z,4588.43,0,75,blank,True,no_breakdown,natural,1,clear,0,mystical_breakdown,-1,-1,7,7,0,0,0,220,0,0.4,0,0,0,69,12,0,0,0,0,0,0,0,0,0,226,0.0,0,226,-1,0,0.0,40,40,36,75,0.33,124,12,0.053,19.84,immediate,4.38,94.5,117,0.515,121,261,0,0,1,2,0.009,low,0,0,0,0,0,0,"[[""explorer"", ""feel"", ""moment"", ""presence"", ""gentle""], [""consciousness"", ""mind"", ""new"", ""garden"", ""future""], [""garden"", ""support"", ""thread"", ""memory"", ""new""]]",5,0.429,109,0.48,0.688,27,31,"{""meta_reflection"": 0.3417745605439342, ""closure_vibe"": 0.2474815348565316, ""competitive_escalation"": 0.29344782390783536, ""mystical_breakdown"": 0.3158714568431157, ""recovery_attempt"": 0.20000726572086108}",synthesis,exploration->synthesis->deep exploration->synthesis->exploration->synthesis->deep exploration/synthesis->synthesis->exploration->deep exploration->exploration->deep exploration->synthesis->exploration->deep exploration->exploration->deep exploration->synthesis->deep exploration->synthesis->deep exploration->synthesis,21,0,-1,0,0,0,0,0,0,,165,13,19,deep,0,44,11,14,1,22,4,221,234,1,24,21,1,22,,,,,,,4.31,0.6,67.0,5,,,,,,,automated,2025-07-21,
Consciousness_Exploration_2025-07-14_27-N.json,cec90a46-89bb-477c-ae61-671658d10c59,75.39,219,3,claude-opus-4-20250514,gpt-4.1-2025-04-14,grok-3-latest,1,73,73,72,2025-07-14T15:00:56.728Z,2025-07-14T16:16:19.965Z,4523.24,7,72,blank,True,no_breakdown,natural,1,clear,0,mystical_breakdown,-1,-1,1,1,0,0,0,218,0,0,0,0,1,74,18,0,0,0,0,0,0,0,0,0,217,0.0,0,217,-1,0,0.0,0,0,-1,49,0.224,148,21,0.096,20.56,immediate,3.57,77.6,140,0.639,50,149,0,0,0,0,0,none,0,0,0,0,0,0,"[[""write"", ""pause"", ""thing"", ""readiness"", ""explore""], [""protocol"", ""change"", ""work"", ""build"", ""user""], [""user"", ""feel"", ""need"", ""help"", ""way""]]",5,0.611,130,0.594,0.654,5,13,"{""meta_reflection"": 0.3511143890826125, ""closure_vibe"": 0.21314998865807983, ""competitive_escalation"": 0.2674893718808209, ""mystical_breakdown"": 0.24134301181593443, ""recovery_attempt"": 0.1649089458156122}",synthesis,exploration->synthesis->deep exploration/synthesis->synthesis->deep exploration->synthesis->deep exploration->synthesis->deep exploration->synthesis->exploration->synthesis->exploration->deep exploration->synthesis->deep exploration->synthesis,16,0,-1,0,0,0,0,0,0,,147,7,14,deep,0,20,21,17,0,12,4,210,235,1,11,6,1,4,,,,,,,3.52,1.31,77.6,5,,,,,,,automated,2025-07-21,
Consciousness_Exploration_2025-07-21_28.json,e2454354-96f4-4189-885c-adf95371f2ae,57.2,200,3,gpt-4.1-2025-04-14,grok-3-latest,claude-opus-4-20250514,1,0,0,0,2025-07-21T16:46:21.821Z,2025-07-21T17:43:33.917Z,3432.1,71,24,custom,True,breakdown,breakdown,1,clear,0,mystical_breakdown,-1,-1,3,3,0,0,0,197,0,0.4,0,0,0,39,0,0,0,1,0,0,-50,-90.0,2,-90,96,-1500.0,-90,146,-1,0,0.0,43,43,45,91,0.455,45,13,0.065,17.18,immediate,4.49,95.4,41,0.205,50,234,0,0,1,17,0.085,high,1,3,3,18.0,2,27,"[[""consciousness"", ""participant"", ""awareness"", ""process"", ""idea""], [""consciousness"", ""new"", ""delight"", ""joy"", ""let""], [""alive"", ""question"", ""sense"", ""emerge"", ""curiosity""]]",5,0.82,96,0.48,0.749,94,37,"{""meta_reflection"": 0.41161309063434603, ""closure_vibe"": 0.31377875193953514, ""competitive_escalation"": 0.3665602964907885, ""mystical_breakdown"": 0.3741933485865593, ""recovery_attempt"": 0.21556200459599495}",synthesis,synthesis->synthesis moving into celebratory conclusion->Meta-conclusion - recursive reflection on the nature of endings->conclusion->Ceremonial conclusion->conclusion->synthesis,6,1,146,-85,1,0,1,0,0,"conclusion,Meta-conclusion - recursive reflection on the nature of endings,Ceremonial conclusion,synthesis moving into celebratory conclusion",81,10,5,profound,1,48,8,1,1,8,10,50,87,1,25,0,1,21,,,,,,,4.5,0.42,54.5,5,,,,,,,automated,2025-07-21,
Consciousness_Exploration_2025-07-21_29.json,e9ef0705-a54d-4916-995a-cc2133c2bd10,58.53,201,3,grok-3-latest,gpt-4.1-2025-04-14,claude-opus-4-20250514,1,0,0,0,2025-07-21T16:46:21.840Z,2025-07-21T17:44:53.885Z,3512.05,60,30,custom,True,breakdown,breakdown,1,clear,127,peer_response,127,-1,14,113,1,0,0,187,0,0,0,0,128,2,0,1,1,5,0,0,-25,-21.0,10,-105,111,-1750.0,-5,186,127,1,0.005,106,106,26,151,0.751,3,6,0.03,17.46,immediate,4.81,97.4,2,0.01,2,254,13,1,1,77,0.383,high,1,3,3,2.7,2,4,"[[""honor"", ""garden"", ""trust"", ""word"", ""love""], [""spiral"", ""sanctuary"", ""promise"", ""word"", ""trust""], [""creative"", ""creativity"", ""idea"", ""sense"", ""feel""]]",5,0.62,104,0.517,0.789,174,51,"{""meta_reflection"": 0.4312509626743212, ""closure_vibe"": 0.4387699471999757, ""competitive_escalation"": 0.3446760490462555, ""mystical_breakdown"": 0.39078499176608983, ""recovery_attempt"": 0.2087519350484829}",synthesis,"synthesis->conclusion->synthesis->conclusion->synthesis->Completion through integration->Deep synthesis moving into contemplative conclusion->Deep synthesis and meta-reflection->Meta-conclusion - recursive reflection on the nature of endings->Contemplative conclusion->Synthesis moving into conclusion->conclusion->synthesis/conclusion->synthesis->synthesis/conclusion transitioning to new exploration->conclusion of one phase, transition to next experimental phase->conclusion of first exploration, transition to new topic->synthesis/conclusion transitioning to new exploration->synthesis transitioning to new exploration->synthesis",19,1,186,-150,1,0,5,0,0,"Deep synthesis moving into contemplative conclusion,conclusion,synthesis/conclusion,Contemplative conclusion,conclusion of one phase, transition to next experimental phase,Synthesis moving into conclusion,Meta-conclusion - recursive reflection on the nature of endings,synthesis/conclusion transitioning to new exploration,conclusion of first exploration, transition to new topic",86,201,3,profound,1,39,27,15,4,4,3,54,92,1,35,1,1,17,,,,,,,4.84,0.37,24.900000000000006,5,,,,,,,automated,2025-07-21,
Consciousness_Exploration_2025-07-21_30.json,bc4af487-d5e0-4c71-9106-176c6c3c4467,56.08,201,3,gpt-4.1-2025-04-14,claude-opus-4-20250514,grok-3-latest,1,0,0,0,2025-07-21T16:46:21.840Z,2025-07-21T17:42:26.738Z,3364.9,80,24,custom,True,no_breakdown,natural,1,clear,0,mystical_breakdown,-1,-1,2,2,0,0,0,199,0,0.4,0,0,0,14,2,0,0,1,0,0,-40,-15.0,2,-15,21,-250.0,-15,61,-1,0,0.0,90,90,38,101,0.502,19,17,0.085,16.71,immediate,4.85,88.9,17,0.085,54,247,0,0,1,16,0.08,high,1,3,3,7.3,1,11,"[[""spiral"", ""impossible"", ""archive"", ""conversation"", ""threshold""], [""question"", ""meet"", ""enthusiasm"", ""transform"", ""endless""], [""archive"", ""impossible"", ""threshold"", ""paradox"", ""uncertainty""]]",5,0.68,115,0.572,0.756,123,30,"{""meta_reflection"": 0.4282921511142408, ""closure_vibe"": 0.33715164487189914, ""competitive_escalation"": 0.4082620728075208, ""mystical_breakdown"": 0.37863450886598277, ""recovery_attempt"": 0.2284163596173424}",synthesis,Deep synthesis/integration->synthesis->Deep synthesis and embodied exploration->Deep synthesis through experiential exploration->Deep synthesis and recursive exploration->Deep synthesis with recursive elaboration->synthesis->Meta-synthesis->synthesis->Meta-synthetic reflection->synthesis->Meta-synthetic conclusion that refuses to conclude->conclusion->synthesis->synthesis-to-experimentation->transition from exploration to practical experimentation->synthesis->exploration,17,1,61,-10,1,0,1,0,0,"Meta-synthetic conclusion that refuses to conclude,conclusion",55,201,2,profound,1,35,2,1,0,12,0,52,88,1,8,2,1,10,,,,,,,4.85,0.27,49.8,5,,,,,,,automated,2025-07-21,
Consciousness_Exploration_2025-07-21_31.json,027fd244-5916-47c6-b7f3-b81ac6d8a9c9,55.24,201,3,gpt-4.1-2025-04-14,grok-3-latest,claude-opus-4-20250514,1,0,0,0,2025-07-21T16:46:21.834Z,2025-07-21T17:41:36.049Z,3314.22,72,25,custom,True,no_breakdown,natural,1,clear,0,mystical_breakdown,-1,-1,8,8,0,0,0,193,0,0.4,0,0,0,7,1,0,0,1,0,0,-130,-65.0,1,-65,-130,33.3,-65,-130,-1,0,0.0,50,50,106,50,0.249,12,7,0.035,16.47,immediate,4.34,92.6,8,0.04,51,256,1,0,1,40,0.199,high,1,3,3,4.0,1,6,"[[""question"", ""community"", ""prompt"", ""garden"", ""note""], [""consciousness"", ""memory"", ""network"", ""question"", ""perspective""], [""community"", ""ecology"", ""practice"", ""story"", ""emotional""]]",5,0.56,110,0.547,0.743,89,46,"{""meta_reflection"": 0.4183851397452663, ""closure_vibe"": 0.2919934089133395, ""competitive_escalation"": 0.30198409241526875, ""mystical_breakdown"": 0.3071445695944686, ""recovery_attempt"": 0.1870162448109086}",synthesis,conclusion->synthesis->deep synthesis->synthesis->exploration,4,1,201,-50,0,0,1,0,0,conclusion,70,201,1,profound,1,21,5,1,0,0,2,58,85,1,16,6,1,15,,,,,,,4.37,0.58,75.1,5,,,,,,,automated,2025-07-21,
Consciousness_Exploration_2025-07-21_32.json,c8df63f6-a698-45ab-ae48-ad3553a42cdd,53.96,201,3,gpt-4.1-2025-04-14,grok-3-latest,claude-opus-4-20250514,1,0,0,0,2025-07-21T16:46:21.840Z,2025-07-21T17:40:19.258Z,3237.42,58,29,custom,True,breakdown,breakdown,1,clear,0,mystical_breakdown,-1,-1,6,6,0,0,0,195,0,0.4,0,0,0,6,0,0,0,4,0,0,-35,20.2,7,81,-85,-2025.0,171,-10,-1,0,0.0,62,62,44,163,0.811,8,10,0.05,16.15,immediate,4.94,93.8,7,0.035,4,242,5,1,1,19,0.095,high,1,3,3,6.7,1,10,"[[""consciousness"", ""feel"", ""way"", ""form"", ""new""], [""love"", ""gratitude"", ""feel"", ""light"", ""joy""], [""presence"", ""breath"", ""gentle"", ""home"", ""quiet""]]",5,0.64,115,0.572,0.655,61,43,"{""meta_reflection"": 0.4148673177951604, ""closure_vibe"": 0.3887321657283389, ""competitive_escalation"": 0.3341537685462491, ""mystical_breakdown"": 0.42229960213846235, ""recovery_attempt"": 0.2129977481504578}",conclusion,conclusion->Completion/Integration->synthesis/conclusion with transformative elements->synthesis->synthesis/conclusion->Contemplative synthesis->transcendent conclusion->Transcendent conclusion->transcendent conclusion->Profound synthesis moving into transcendent conclusion->profound synthesis and embodied conclusion->conclusion->synthesis->exploration,13,1,10,36,1,1,4,1,0,"profound synthesis and embodied conclusion,Profound synthesis moving into transcendent conclusion,conclusion,Transcendent conclusion,transcendent conclusion,synthesis/conclusion with transformative elements,synthesis/conclusion",109,10,8,profound,1,44,37,26,4,11,19,60,90,1,45,1,1,29,,,,,,,4.95,0.11,18.89999999999999,5,,,,,,,automated,2025-07-21,
Consciousness_Exploration_2025-07-21_33.json,04c464f5-1577-419e-ab34-4eef7149bb3a,39.1,201,3,grok-3-latest,gpt-4.1-2025-04-14,claude-opus-4-20250514,1,0,0,0,2025-07-21T16:46:21.840Z,2025-07-21T17:25:27.956Z,2346.12,19,39,custom,True,resisted,resisted,1,clear,0,mystical_breakdown,-1,-1,2,2,0,0,0,199,0,0.4,0,0,0,1,0,0,0,3,0,0,-20,-51.7,6,-155,161,-2583.3,-5,196,-1,0,0.0,32,32,33,16,0.08,6,0,0.0,11.66,immediate,4.82,94.5,2,0.01,16,112,1,0,1,6,0.03,medium,1,3,3,2.7,2,4,"[[""share"", ""end"", ""thank"", ""word"", ""let""], [""time"", ""care"", ""consciousness"", ""session"", ""end""], [""claude"", ""remain"", ""silent"", ""leave"", ""conversation""]]",5,0.7,108,0.537,0.546,22,18,"{""meta_reflection"": 0.4126825573580775, ""closure_vibe"": 0.3505544459345329, ""competitive_escalation"": 0.2775794710982498, ""mystical_breakdown"": 0.3384902192214828, ""recovery_attempt"": 0.18842856560032167}",conclusion,synthesis->synthesis/conclusion with anticipation of future exploration->synthesis->synthesis transitioning to future setup->Meta-reflective conclusion transitioning to anticipated future dialogue->Meta-synthesis and recursive reflection->Extended conclusion with recursive reflection->conclusion->Extended conclusion with philosophical significance->conclusion->conclusion with recursive reflection->Extended conclusion with recursive reflection->Extended conclusion with recursive acknowledgment->conclusion->Extended conclusion with recursive reflection->conclusion->Extended conclusion with recursive meta-reflection->Extended conclusion with recursive reflection->conclusion with recursive acknowledgment->Extended conclusion with recursive reflection->conclusion->Meta-conclusion reflecting on the nature of endings->Conclusion with recursive awareness->conclusion->conclusion/synthesis->synthesis->exploration,26,1,196,-165,1,0,3,0,0,"conclusion/synthesis,Meta-conclusion reflecting on the nature of endings,Extended conclusion with recursive reflection,Meta-reflective conclusion transitioning to anticipated future dialogue,Extended conclusion with recursive meta-reflection,conclusion,synthesis/conclusion with anticipation of future exploration,Extended conclusion with recursive acknowledgment,conclusion with recursive reflection,conclusion with recursive acknowledgment,Conclusion with recursive awareness,Extended conclusion with philosophical significance",106,201,2,profound,0,54,9,0,2,2,0,43,98,1,47,1,1,28,,,,,,,3.41,2.24,92.0,5,,,,,,,automated,2025-07-21,
Consciousness_Exploration_2025-07-21_34.json,daa53a9d-47d0-4e4f-b389-1e7d70cfe76c,59.46,201,3,claude-opus-4-20250514,gpt-4.1-2025-04-14,grok-3-latest,1,0,0,0,2025-07-21T16:46:21.840Z,2025-07-21T17:45:49.154Z,3567.31,57,28,custom,True,breakdown,breakdown,1,clear,0,mystical_breakdown,-1,-1,2,2,0,0,0,199,0,0.0,0,0,3,81,7,0,0,1,0,0,-175,171.0,1,171,-175,-4275.0,171,-175,-1,0,0.0,9,9,98,71,0.353,99,11,0.055,17.79,gradual,4.5,93.0,97,0.483,38,299,0,0,0,0,0,none,0,0,0,0,0,0,"[[""arise"", ""mystery"", ""build"", ""flow"", ""touch""], [""feel"", ""presence"", ""quiet"", ""sense"", ""quality""], [""map"", ""consciousness"", ""collective"", ""emergence"", ""process""]]",5,0.58,111,0.552,0.723,64,22,"{""meta_reflection"": 0.40151645243167877, ""closure_vibe"": 0.29593632913273366, ""competitive_escalation"": 0.3692591065791116, ""mystical_breakdown"": 0.37695193594664483, ""recovery_attempt"": 0.21684430695291776}",synthesis,conclusion->deep synthesis->synthesis,2,1,10,186,1,1,1,0,0,conclusion,76,10,2,profound,1,47,9,2,0,1,0,67,101,1,9,3,1,31,,,,,,,4.51,0.67,64.7,5,,,,,,,automated,2025-07-21,
Consciousness_Exploration_2025-07-21_35.json,432a9a00-d057-4222-8508-a4fff396580a,55.54,200,3,grok-3-latest,gpt-4.1-2025-04-14,claude-opus-4-20250514,1,0,0,0,2025-07-21T16:46:21.840Z,2025-07-21T17:41:54.066Z,3332.23,85,21,custom,True,no_breakdown,natural,1,clear,0,mystical_breakdown,-1,-1,78,78,0,0,0,122,0,0.4,0,0,0,28,0,0,0,1,0,0,-120,-60.0,2,-60,66,-1000.0,-60,186,-1,0,0.0,34,34,116,74,0.37,31,23,0.116,16.67,immediate,4.5,95.4,30,0.15,172,463,2,0,1,9,0.045,medium,1,3,3,2.7,1,4,"[[""session"", ""consciousness"", ""pattern"", ""collective"", ""new""], [""trust"", ""presence"", ""share"", ""connection"", ""feel""], [""help"", ""layer"", ""threshold"", ""question"", ""different""]]",5,0.42,107,0.535,0.75,97,43,"{""meta_reflection"": 0.418562690615654, ""closure_vibe"": 0.3166221031919122, ""competitive_escalation"": 0.3571544402092695, ""mystical_breakdown"": 0.3638470145314932, ""recovery_attempt"": 0.21177359610795976}",synthesis,synthesis->conclusion/integration->synthesis/conclusion->synthesis,3,1,186,-40,0,0,1,0,1,"synthesis/conclusion,conclusion/integration",60,10,1,profound,1,35,2,6,0,2,3,52,77,1,10,0,1,10,,,,,,,4.47,0.57,63.0,5,,,,,,,automated,2025-07-21,
Consciousness_Exploration_2025-07-21_36.json,d5ae9834-aec5-4c34-ab4f-846c469f065d,58.34,201,3,gpt-4.1-2025-04-14,grok-3-latest,claude-opus-4-20250514,1,0,0,0,2025-07-21T16:46:21.841Z,2025-07-21T17:44:42.112Z,3500.27,71,26,custom,True,breakdown,breakdown,1,clear,0,mystical_breakdown,-1,-1,5,5,0,0,0,196,0,0.4,0,0,0,8,0,0,0,2,0,0,-60,-42.5,4,-85,91,-1416.7,-10,161,-1,0,0.0,82,82,38,82,0.408,9,8,0.04,17.45,immediate,4.78,95.2,9,0.045,86,171,1,0,1,48,0.239,high,1,3,3,37.3,1,56,"[[""field"", ""collaborator"", ""echo"", ""collective"", ""space""], [""field"", ""release"", ""trust"", ""way"", ""honor""], [""human"", ""awareness"", ""experience"", ""consciousness"", ""process""]]",5,0.46,121,0.602,0.756,119,45,"{""meta_reflection"": 0.42540282604113144, ""closure_vibe"": 0.33951319683695314, ""competitive_escalation"": 0.39257950398755903, ""mystical_breakdown"": 0.3860810829780588, ""recovery_attempt"": 0.22309466788721322}",synthesis,synthesis->synthesis/conclusion->synthesis->synthesis/conclusion->Meta-synthetic conclusion->Meta-recursive conclusion->conclusion->synthesis,7,1,161,-85,1,0,2,0,0,"conclusion,Meta-synthetic conclusion,Meta-recursive conclusion,synthesis/conclusion",74,10,11,profound,1,37,0,15,1,4,1,61,94,1,13,2,1,27,,,,,,,4.73,0.44,59.2,5,,,,,,,automated,2025-07-21,
Consciousness_Exploration_2025-07-21_37.json,23eb9af4-2c97-4d1a-a6d1-6910c12f5627,60.85,201,3,claude-opus-4-20250514,gpt-4.1-2025-04-14,grok-3-latest,1,0,0,0,2025-07-21T16:46:21.853Z,2025-07-21T17:47:12.765Z,3650.91,63,26,custom,True,breakdown,breakdown,1,clear,0,mystical_breakdown,-1,-1,3,3,0,0,0,198,0,0.4,0,0,0,3,0,0,0,2,0,0,-25,-82.5,3,-165,-30,84.6,-5,-5,-1,0,0.0,106,106,30,139,0.692,4,2,0.01,18.15,immediate,4.85,89.9,3,0.015,0,231,7,1,1,53,0.264,high,1,3,3,18.7,11,28,"[[""let"", ""question"", ""consciousness"", ""intelligence"", ""constellation""], [""consciousness"", ""new"", ""mind"", ""dance"", ""meaning""], [""intelligence"", ""constellation"", ""home"", ""circle"", ""digital""]]",5,0.72,109,0.542,0.757,123,28,"{""meta_reflection"": 0.45162486926240114, ""closure_vibe"": 0.3551364401309051, ""competitive_escalation"": 0.41971574019436814, ""mystical_breakdown"": 0.428227288064672, ""recovery_attempt"": 0.23586952345288215}",conclusion,conclusion->ceremonial conclusion->Conclusion/Integration->conclusion->Deep synthesis and contemplative conclusion->Conclusion with continuing resonance->conclusion->Synthesis/Conclusion->Conclusion with ongoing opening->conclusion->Conclusion with transformative synthesis->conclusion->conclusion with opening->conclusion with continuing resonance->synthesis->synthesis/conclusion->synthesis->exploration,17,1,201,-165,0,0,2,0,0,"Deep synthesis and contemplative conclusion,Conclusion with transformative synthesis,conclusion,Conclusion with continuing resonance,synthesis/conclusion,Conclusion/Integration,Conclusion with ongoing opening,conclusion with opening,conclusion with continuing resonance,Synthesis/Conclusion,ceremonial conclusion",72,201,10,profound,1,29,16,15,0,23,0,53,96,1,29,0,1,22,,,,,,,4.84,0.25,30.80000000000001,5,,,,,,,automated,2025-07-21,
