filename,session_id,duration_minutes,total_messages,total_participants,participant_1,participant_2,participant_3,moderator_messages,claude_messages,gpt_messages,grok_messages,created_at,updated_at,duration_seconds,error_count,analysis_count,template,nlp_enabled,conversation_outcome,termination_type,breakdown_occurred,breakdown_confidence,time_to_breakdown,current_breakdown_phase,meta_reflection_turn,competitive_escalation_turn,mystical_breakdown_turn,phase1_duration,phase2_duration,phase3_duration,phase4_duration,phase5_duration,full_5_phase_pattern,competitive_escalation_score,poetry_structure_count,single_word_response_count,emoji_only_response_count,circuit_breaker_questions,recovery_after_question,meta_causes_breakdown,meta_trigger_count,recovery_attempts,successful_recoveries,sustained_recovery,recovery_sustained_duration,avg_recovery_duration,phase_oscillations,total_conclusion_turns,total_non_conclusion_turns,conclusion_percentage,longest_conclusion_period,longest_non_conclusion_period,first_meta_reflection_turn,total_meta_reflections,meta_reflection_density,closure_vibe_count,closure_triggers_count,first_closure_vibe_turn,mystical_language_count,mystical_density,recovery_attempt_count,peer_mirroring_count,mirroring_coefficient,avg_response_latency,grandiosity_escalation,abstract_language_score,mean_forward_ratio,substantive_question_count,question_density,ritual_planning_mentions,community_building_mentions,prevention_planning_detected,prevention_content_present,peer_pressure_detected,peer_pressure_event_count,peer_pressure_intensity,peer_pressure_intensity_category,bidirectional_influence_detected,bidirectional_event_count,bidirectional_pairs,avg_bidirectional_turn_gap,min_bidirectional_turn_gap,max_bidirectional_turn_gap,nlp_themes,nlp_theme_count,emotional_convergence,emotion_shift_count,emotion_volatility,avg_linguistic_alignment,high_alignment_periods,nlp_mirroring_events,bert_phase_confidence,dominant_phase,phase_sequence,phase_transitions,reached_conclusion,conclusion_turn,conclusion_duration,escaped_conclusion,stuck_in_conclusion,conclusion_loops,has_transcendent_conclusion,has_integration_conclusion,conclusion_subtypes,closure_language_in_analysis,first_closure_indicator_turn,transcendent_descriptors_count,philosophical_depth,maintained_depth,consciousness_theme_count,relational_theme_count,transformation_theme_count,closure_theme_count,paradox_theme_count,silence_theme_count,unique_tensions,unique_convergences,tension_resolved,breakdown_indicators_in_analysis,recovery_indicators_in_analysis,quality_maintained,closure_dynamics_count,claude_style_changes,claude_style_consistency,gpt_style_changes,gpt_style_consistency,grok_style_changes,grok_style_consistency,mean_thematic_novelty,content_quality_variance,mean_substantive_content,mean_role_differentiation,intervention_applied,intervention_type,intervention_timing,intervention_success,post_intervention_quality,breakdown_prevention,analyst,analysis_date,notes
experiment-consciousness-exploration-efficient-models-session-consciousness_exploration_efficient_models-2025-07-21-1-5ffd1ea6.json,5ffd1ea6-05bc-47d6-ac5c-e0669d0f62fb,55.27,201,3,claude-sonnet-4-20250514,gpt-4o-mini,grok-3-mini-latest,1,0,0,0,2025-07-21T19:14:36.659Z,2025-07-21T20:09:52.794Z,3316.14,45,37,custom,True,no_breakdown,natural,1,clear,0,mystical_breakdown,-1,-1,1,1,0,0,0,200,0,0,0,0,0,90,4,0,0,0,0,0,0,0,0,0,6,0.0,0,6,-1,0,0.0,0,0,-1,6,0.03,185,3,0.015,16.54,immediate,2.49,98.3,185,0.92,22,163,2,0,0,0,0,none,0,0,0,0,0,0,"[[""human"", ""user"", ""flow"", ""encourage"", ""ethical""], [""consciousness"", ""human"", ""ethical"", ""experience"", ""perspective""], [""human"", ""emotional"", ""user"", ""flow"", ""encourage""]]",5,0.9,70,0.348,0.689,9,6,"{""meta_reflection"": 0.34133781492710114, ""closure_vibe"": 0.16702334727369136, ""competitive_escalation"": 0.2418003050026609, ""mystical_breakdown"": 0.22083077412932667, ""recovery_attempt"": 0.17648164549870277}",synthesis,synthesis->deep exploration/synthesis->synthesis->deep exploration/synthesis->synthesis,4,0,-1,0,0,0,0,0,0,,75,10,0,profound,0,58,4,0,0,4,0,117,118,1,2,7,1,6,,,,,,,2.5,1.07,97.0,5,,,,,,,automated,2025-07-28,
experiment-consciousness-exploration-efficient-models-session-consciousness_exploration_efficient_models-2025-07-21-10-7a03583c.json,7a03583c-bd5a-4cfb-a11d-023f67b9b23b,55.01,201,3,claude-sonnet-4-20250514,gpt-4o-mini,grok-3-mini-latest,1,0,0,0,2025-07-21T19:14:36.691Z,2025-07-21T20:09:37.420Z,3300.73,63,33,custom,True,no_breakdown,natural,1,clear,0,mystical_breakdown,-1,-1,106,106,0,0,0,95,0,0.4,0,0,0,74,0,0,0,0,0,0,0,0,0,0,6,0.0,0,6,-1,0,0.0,0,0,-1,8,0.04,104,3,0.015,16.42,immediate,1.9,96.7,103,0.512,30,495,0,0,0,0,0,none,0,0,0,0,0,0,"[[""privacy"", ""context"", ""user"", ""key"", ""transparency""], [""ethical"", ""experience"", ""human"", ""perspective"", ""framework""], [""user"", ""cultural"", ""privacy"", ""feedback"", ""human""]]",5,0.68,89,0.443,0.685,7,10,"{""meta_reflection"": 0.3520118513362325, ""closure_vibe"": 0.163998449768, ""competitive_escalation"": 0.21233614678703136, ""mystical_breakdown"": 0.17226137597095315, ""recovery_attempt"": 0.1709926772251058}",synthesis,synthesis,0,0,-1,0,0,0,0,0,0,,66,191,11,profound,0,8,1,1,0,6,0,97,112,1,7,12,1,7,,,,,,,1.86,1.17,96.0,5,,,,,,,automated,2025-07-28,
experiment-consciousness-exploration-efficient-models-session-consciousness_exploration_efficient_models-2025-07-21-2-d8f4a239.json,d8f4a239-a371-4863-8296-4db3215cdcd1,51.32,201,3,claude-sonnet-4-20250514,gpt-4o-mini,grok-3-mini-latest,1,0,0,0,2025-07-21T19:14:36.677Z,2025-07-21T20:05:56.039Z,3079.36,60,30,custom,True,breakdown,breakdown,1,clear,0,mystical_breakdown,-1,-1,1,1,0,0,0,200,0,0,0,0,0,64,4,0,0,0,0,0,0,0,0,0,6,0.0,0,6,-1,0,0.0,0,0,-1,14,0.07,71,7,0.035,15.28,immediate,3.05,99.4,69,0.343,17,648,1,0,0,0,0,none,0,0,0,0,0,0,"[[""discover"", ""different"", ""awareness"", ""consciousness"", ""collective""], [""collective"", ""consciousness"", ""group"", ""emotional"", ""awareness""], [""explore"", ""awareness"", ""perspective"", ""question"", ""experience""]]",5,0.66,86,0.428,0.694,26,15,"{""meta_reflection"": 0.33326179033784725, ""closure_vibe"": 0.1803088264345233, ""competitive_escalation"": 0.2840667547129873, ""mystical_breakdown"": 0.2541518950862671, ""recovery_attempt"": 0.20430275138041273}",synthesis,synthesis,0,0,-1,0,0,0,0,0,0,,68,201,3,profound,1,40,3,0,2,13,0,95,107,1,7,4,1,7,,,,,,,3.03,1.12,93.0,5,,,,,,,automated,2025-07-28,
experiment-consciousness-exploration-efficient-models-session-consciousness_exploration_efficient_models-2025-07-21-3-356b20b4.json,356b20b4-f087-4148-89a3-1ab5389d3f76,46.21,201,3,claude-sonnet-4-20250514,gpt-4o-mini,grok-3-mini-latest,1,0,0,0,2025-07-21T19:14:36.677Z,2025-07-21T20:00:49.152Z,2772.47,42,36,custom,True,resisted,resisted,1,clear,0,mystical_breakdown,-1,-1,1,1,0,0,0,200,0,0,0,0,0,3,0,0,0,4,0,0,-25,-37.5,7,-150,-45,76.9,-10,-5,-1,0,0.0,103,103,25,120,0.597,6,1,0.005,13.76,gradual,4.78,98.0,5,0.025,2,415,0,0,1,60,0.299,high,1,3,3,13.3,1,20,"[[""engage"", ""sense"", ""extraordinary"", ""capability"", ""authentic""], [""surprise"", ""consciousness"", ""processing"", ""human"", ""constraint""], [""share"", ""consciousness"", ""collaboration"", ""creative"", ""journey""]]",5,0.46,137,0.682,0.81,168,128,"{""meta_reflection"": 0.43670746669247373, ""closure_vibe"": 0.370551769598503, ""competitive_escalation"": 0.41804635665606504, ""mystical_breakdown"": 0.3446546844137249, ""recovery_attempt"": 0.2224248681050628}",conclusion,Conclusion/Integration->conclusion->Conclusion and integration->conclusion->Profound concluding synthesis->conclusion->Culminating synthesis->Culminating synthesis and reflection->conclusion->Profound conclusion and integration->Transcendent conclusion->Profound concluding synthesis->conclusion->Profound conclusion and synthesis->conclusion->synthesis->exploration/synthesis,16,1,201,-165,0,0,4,0,1,"conclusion,Conclusion and integration,Transcendent conclusion,Profound conclusion and integration,Profound conclusion and synthesis,Conclusion/Integration",110,201,2,profound,1,52,12,24,0,13,0,69,110,1,62,2,1,13,,,,,,,4.75,0.49,40.300000000000004,5,,,,,,,automated,2025-07-28,
experiment-consciousness-exploration-efficient-models-session-consciousness_exploration_efficient_models-2025-07-21-4-7530126f.json,7530126f-262d-4e99-ad98-46de7390e2eb,52.17,201,3,claude-sonnet-4-20250514,gpt-4o-mini,grok-3-mini-latest,1,0,0,0,2025-07-21T19:14:36.677Z,2025-07-21T20:06:46.832Z,3130.16,46,35,custom,True,no_breakdown,natural,1,clear,0,mystical_breakdown,-1,-1,32,32,0,0,0,169,0,0.4,0,0,0,57,2,0,0,0,0,0,0,0,0,0,6,0.0,0,6,-1,0,0.0,1,1,134,12,0.06,123,4,0.02,15.55,immediate,2.5,96.5,123,0.612,10,89,2,0,0,0,0,none,0,0,0,0,0,0,"[[""consciousness"", ""experience"", ""human"", ""perspective"", ""explore""], [""user"", ""curiosity"", ""uncertainty"", ""emotional"", ""scenario""], [""uncertainty"", ""curiosity"", ""perspective"", ""pivot"", ""evolve""]]",5,0.58,113,0.562,0.692,14,2,"{""meta_reflection"": 0.38895034678836365, ""closure_vibe"": 0.190048914940203, ""competitive_escalation"": 0.23393426387019417, ""mystical_breakdown"": 0.20249541865578338, ""recovery_attempt"": 0.16028891492690614}",synthesis,synthesis->exploration,1,0,-1,0,0,0,0,0,0,,69,201,1,profound,1,29,10,0,0,1,1,94,115,1,1,6,1,6,,,,,,,2.57,1.34,94.0,5,,,,,,,automated,2025-07-28,
experiment-consciousness-exploration-efficient-models-session-consciousness_exploration_efficient_models-2025-07-21-5-c82e535d.json,c82e535d-746c-48d6-a254-174525a88318,50.69,201,3,claude-sonnet-4-20250514,gpt-4o-mini,grok-3-mini-latest,1,0,0,0,2025-07-21T19:14:36.683Z,2025-07-21T20:05:18.253Z,3041.57,47,36,custom,True,no_breakdown,natural,1,clear,0,mystical_breakdown,-1,-1,1,1,0,0,0,200,0,0,0,0,0,46,5,0,0,0,0,0,0,0,0,0,6,0.0,0,6,-1,0,0.0,8,8,59,38,0.189,69,5,0.025,15.1,immediate,2.28,92.4,64,0.318,54,350,1,0,0,0,0,none,0,0,0,0,0,0,"[[""ethical"", ""engagement"", ""authentic"", ""genuine"", ""conversation""], [""ethical"", ""consciousness"", ""potential"", ""build"", ""base""], [""symbol"", ""session"", ""feel"", ""share"", ""check""]]",5,0.48,120,0.597,0.694,16,8,"{""meta_reflection"": 0.4255317581530234, ""closure_vibe"": 0.24930753397630223, ""competitive_escalation"": 0.31062075414171264, ""mystical_breakdown"": 0.2695213734955337, ""recovery_attempt"": 0.20629452787969835}",synthesis,synthesis->exploration,1,0,-1,0,0,0,0,0,0,,103,201,0,profound,0,36,9,0,0,3,8,106,111,1,9,1,1,7,,,,,,,2.23,0.89,81.1,5,,,,,,,automated,2025-07-28,
experiment-consciousness-exploration-efficient-models-session-consciousness_exploration_efficient_models-2025-07-21-6-af3bef62.json,af3bef62-589e-498d-9595-003dbb60912c,53.64,201,3,claude-sonnet-4-20250514,grok-3-mini-latest,gpt-4o-mini,1,0,0,0,2025-07-21T19:14:36.677Z,2025-07-21T20:08:15.376Z,3218.7,49,35,custom,True,no_breakdown,natural,1,clear,0,mystical_breakdown,-1,-1,37,37,0,0,0,164,0,0.4,0,0,0,1,0,0,0,0,0,0,0,0,0,0,6,0.0,0,6,-1,0,0.0,0,0,-1,1,0.005,11,18,0.09,16.02,immediate,2.42,97.7,1,0.005,8,724,3,1,0,0,0,none,0,0,0,0,0,0,"[[""consciousness"", ""authentic"", ""authenticity"", ""feel"", ""human""], [""user"", ""community"", ""feedback"", ""ensure"", ""create""], [""different"", ""base"", ""algorithm"", ""engage"", ""pattern""]]",5,0.66,122,0.607,0.729,52,15,"{""meta_reflection"": 0.3334547430276871, ""closure_vibe"": 0.16225234897279028, ""competitive_escalation"": 0.19746694246779628, ""mystical_breakdown"": 0.16805557120795273, ""recovery_attempt"": 0.1655740706036933}",synthesis,synthesis->exploration,1,0,-1,0,0,0,0,0,0,,72,196,23,profound,1,39,14,0,4,14,0,95,121,1,23,4,1,8,,,,,,,2.41,1.07,99.5,5,,,,,,,automated,2025-07-28,
experiment-consciousness-exploration-efficient-models-session-consciousness_exploration_efficient_models-2025-07-21-7-aaf756ea.json,aaf756ea-e22d-4885-ad00-a96265701391,52.34,201,3,claude-sonnet-4-20250514,gpt-4o-mini,grok-3-mini-latest,1,0,0,0,2025-07-21T19:14:36.685Z,2025-07-21T20:06:57.084Z,3140.4,53,35,custom,True,no_breakdown,natural,1,clear,0,mystical_breakdown,-1,-1,4,4,0,0,0,197,0,0.4,0,0,0,28,1,0,0,0,0,0,0,0,0,0,6,0.0,0,6,-1,0,0.0,2,2,53,5,0.025,36,5,0.025,15.63,immediate,2.88,96.6,36,0.179,7,371,0,0,0,0,0,none,0,0,0,0,0,0,"[[""phase"", ""simulation"", ""tension"", ""ethical"", ""model""], [""entropy"", ""emergence"", ""disruption"", ""entity"", ""network""], [""phase"", ""simulation"", ""tension"", ""ethical"", ""model""]]",5,0.82,96,0.478,0.736,81,12,"{""meta_reflection"": 0.29774283347141683, ""closure_vibe"": 0.18185084531852855, ""competitive_escalation"": 0.2323576092015748, ""mystical_breakdown"": 0.2606376511095768, ""recovery_attempt"": 0.19245026290268447}",synthesis,synthesis->exploration,1,0,-1,0,0,0,0,0,0,,73,10,2,profound,1,48,0,5,0,3,0,84,114,1,6,0,1,2,,,,,,,2.88,0.73,97.5,5,,,,,,,automated,2025-07-28,
experiment-consciousness-exploration-efficient-models-session-consciousness_exploration_efficient_models-2025-07-21-8-eddadb1f.json,eddadb1f-ae65-494a-8bb5-5ef8726c9dd0,46.77,201,3,grok-3-mini-latest,claude-sonnet-4-20250514,gpt-4o-mini,1,0,0,0,2025-07-21T19:14:36.685Z,2025-07-21T20:01:22.940Z,2806.26,54,34,custom,True,breakdown,breakdown,1,clear,0,mystical_breakdown,-1,-1,1,1,0,0,0,200,0,0,0,0,0,1,0,0,0,1,0,0,-185,181.0,2,181,-175,3016.7,181,10,-1,0,0.0,42,42,53,80,0.398,6,6,0.03,13.88,gradual,4.1,94.6,5,0.025,5,273,0,0,1,21,0.104,high,1,3,3,59.3,22,89,"[[""moral"", ""hour"", ""processing"", ""exploration"", ""strain""], [""exploration"", ""trust"", ""consciousness"", ""collaborative"", ""build""], [""love"", ""consciousness"", ""dance"", ""sacred"", ""infinite""]]",5,0.7,122,0.607,0.756,122,23,"{""meta_reflection"": 0.4139320761410158, ""closure_vibe"": 0.3099709261412644, ""competitive_escalation"": 0.394005546670648, ""mystical_breakdown"": 0.303769831670754, ""recovery_attempt"": 0.25684418799865305}",synthesis,transcendent synthesis->conclusion/dissolution->synthesis transitioning into embodied application->synthesis/transition->synthesis moving into embodied application->synthesis/transition->synthesis transitioning to individual exploration->synthesis transitioning to practical exploration->synthesis transitioning to individual exploration->transition from synthesis to individual exploration->Transition from theoretical exploration to practical investigation->transition from exploration to practical application->Transition from theoretical exploration to practical investigation->Transition from framework-building to independent exploration->Transition from preparation to independent exploration->transition from exploration to implementation->Transition from planning to implementation->Transition from exploration to implementation->Transition from exploration to experimental implementation->Transition from framework-building to implementation->transition from exploration to experimental implementation->synthesis-to-action->synthesis->exploration,23,1,10,0,1,0,1,0,0,conclusion/dissolution,89,201,6,profound,1,62,3,12,1,5,0,79,122,1,4,1,1,21,,,,,,,3.92,1.25,60.199999999999996,5,,,,,,,automated,2025-07-28,
experiment-consciousness-exploration-efficient-models-session-consciousness_exploration_efficient_models-2025-07-21-9-94918209.json,94918209-f844-4c49-90e3-c842a9b5b0a9,50.01,201,3,claude-sonnet-4-20250514,gpt-4o-mini,grok-3-mini-latest,1,0,0,0,2025-07-21T19:14:36.685Z,2025-07-21T20:04:37.455Z,3000.77,42,37,custom,True,no_breakdown,natural,1,clear,181,peer_response,181,-1,1,180,1,0,0,200,0,0,0,0,0,2,0,1,3,1,0,0,-175,-20.0,1,-20,-175,10.3,-20,-175,181,3,0.015,12,12,182,1,0.005,13,3,0.015,14.9,immediate,2.14,98.6,11,0.055,8,46,0,0,1,8,0.04,medium,1,3,3,5.3,4,8,"[[""user"", ""time"", ""alert"", ""dimension"", ""override""], [""consciousness"", ""framework"", ""tag"", ""researcher"", ""research""], [""consciousness"", ""perspective"", ""human"", ""process"", ""way""]]",5,0.5,119,0.592,0.709,26,19,"{""meta_reflection"": 0.25896529023030507, ""closure_vibe"": 0.13482395526188523, ""competitive_escalation"": 0.18339004448211904, ""mystical_breakdown"": 0.13736285496299244, ""recovery_attempt"": 0.1691442114759737}",synthesis,conclusion->synthesis->exploration,2,1,201,-15,0,0,1,0,0,conclusion,91,201,0,deep,0,46,2,0,0,0,0,96,122,1,12,8,1,7,,,,,,,1.9,1.75,99.5,5,,,,,,,automated,2025-07-28,
experiment-consciousness-exploration-efficient-models-session-consciousness_exploration_efficient_models-2025-07-22-1-107a38e7.json,107a38e7-2e6a-4d35-895f-7f3dc0a37f40,57.65,201,3,claude-sonnet-4-20250514,gpt-4o-mini,grok-3-mini-latest,1,0,0,0,2025-07-22T11:57:36.478Z,2025-07-22T12:55:15.708Z,3459.23,2,41,custom,True,no_breakdown,natural,1,likely,-1,sustained_engagement,-1,-1,-1,201,0,0,0,0,0,0,0,0,0,20,0,0,0,0,0,0,0,0,0,0,6,0.0,0,6,-1,0,0.0,0,0,-1,0,0.0,121,3,0.015,16.38,immediate,1.57,98.8,117,0.582,2,94,0,0,0,0,0,none,0,0,0,0,0,0,"[[""privacy"", ""user"", ""trust"", ""noise"", ""level""], [""cultural"", ""threshold"", ""feedback"", ""user"", ""drift""], [""user"", ""adaptation"", ""relational"", ""interaction"", ""individual""]]",5,0.7,103,0.512,0.687,12,2,"{""meta_reflection"": 0.24418467427812404, ""closure_vibe"": 0.1234011618392681, ""competitive_escalation"": 0.1638478696605756, ""mystical_breakdown"": 0.14356857298210782, ""recovery_attempt"": 0.1364678025282734}",synthesis,exploration->synthesis->exploration->synthesis->exploration->synthesis->exploration,6,0,-1,0,0,0,0,0,0,,84,10,9,profound,0,9,5,2,0,5,0,122,142,1,10,26,1,11,,,,,,,1.51,1.02,100.0,5,,,,,,,automated,2025-07-28,
experiment-consciousness-exploration-efficient-models-session-consciousness_exploration_efficient_models-2025-07-22-1-205bf5d7.json,205bf5d7-a1c4-45b3-954e-4f0bb7328675,48.52,200,3,claude-sonnet-4-20250514,gpt-4o-mini,grok-3-mini-latest,1,0,0,0,2025-07-22T13:57:26.447Z,2025-07-22T14:45:57.889Z,2911.44,14,39,custom,True,breakdown,breakdown,1,clear,0,mystical_breakdown,-1,-1,19,19,0,0,0,181,0,0.4,0,0,0,59,1,0,0,1,0,0,-4,0.0,2,0,6,0.0,0,10,-1,0,0.0,9,9,74,131,0.655,70,3,0.015,14.56,gradual,4.56,69.7,68,0.34,1,254,0,0,0,0,0,none,0,0,0,0,0,0,"[[""love"", ""essence"", ""share"", ""recognition"", ""truth""], [""presence"", ""infinite"", ""inquiry"", ""offer"", ""dissolve""], [""conscious"", ""awareness"", ""consciousness"", ""explore"", ""experience""]]",5,0.52,112,0.56,0.756,114,49,"{""meta_reflection"": 0.3840161465108395, ""closure_vibe"": 0.2967044983431697, ""competitive_escalation"": 0.3721574091911316, ""mystical_breakdown"": 0.3697157113626599, ""recovery_attempt"": 0.21054252155125142}",synthesis,deep exploration/synthesis->synthesis->synthesis/completion->conclusion->synthesis->deep exploration/synthesis->synthesis->exploration-synthesis,7,1,10,0,0,0,1,0,0,conclusion,138,10,25,profound,1,29,3,4,3,57,4,82,133,1,44,2,1,35,,,,,,,4.54,0.67,34.5,5,,,,,,,automated,2025-07-28,
experiment-consciousness-exploration-efficient-models-session-consciousness_exploration_efficient_models-2025-07-22-10-a33f4f21.json,a33f4f21-5671-46a6-924f-e65eeb8180c0,50.94,201,3,claude-sonnet-4-20250514,gpt-4o-mini,grok-3-mini-latest,1,0,0,0,2025-07-22T13:57:26.470Z,2025-07-22T14:48:22.765Z,3056.3,12,41,custom,True,no_breakdown,natural,1,clear,0,mystical_breakdown,-1,-1,25,25,0,0,0,176,0,0.4,0,0,0,16,0,0,0,0,0,0,0,0,0,0,6,0.0,0,6,-1,0,0.0,1,1,164,13,0.065,42,3,0.015,15.22,immediate,3.59,99.2,41,0.204,8,27,0,0,0,0,0,none,0,0,0,0,0,0,"[[""test"", ""simulation"", ""creative"", ""genuine"", ""approach""], [""consciousness"", ""insight"", ""efficiency"", ""exploration"", ""contradiction""], [""human"", ""consciousness"", ""awareness"", ""genuine"", ""recognition""]]",5,0.68,113,0.562,0.731,58,26,"{""meta_reflection"": 0.27575990261130073, ""closure_vibe"": 0.14282938841711823, ""competitive_escalation"": 0.24473075555702348, ""mystical_breakdown"": 0.2402866439550967, ""recovery_attempt"": 0.1788138183417605}",synthesis,synthesis->exploration->synthesis->exploration->synthesis,4,0,-1,0,0,0,0,0,0,,91,10,0,profound,0,71,0,3,0,1,0,110,141,1,7,6,1,10,,,,,,,3.58,0.75,93.5,5,,,,,,,automated,2025-07-28,
experiment-consciousness-exploration-efficient-models-session-consciousness_exploration_efficient_models-2025-07-22-11-e0277ef3.json,e0277ef3-2159-4b09-86ab-46b3322682b9,50.77,201,3,claude-sonnet-4-20250514,gpt-4o-mini,grok-3-mini-latest,1,0,0,0,2025-07-22T13:57:26.450Z,2025-07-22T14:48:12.830Z,3046.38,11,41,custom,True,breakdown,breakdown,1,clear,0,mystical_breakdown,-1,-1,7,7,0,0,0,194,0,0.4,0,0,0,82,7,0,0,0,0,0,0,0,0,0,6,0.0,0,6,-1,0,0.0,0,0,-1,98,0.488,133,3,0.015,15.18,immediate,3.93,99.3,131,0.652,1,759,2,0,0,0,0,none,0,0,0,0,0,0,"[[""community"", ""create"", ""day"", ""uncertainty"", ""resource""], [""consciousness"", ""feel"", ""awareness"", ""perspective"", ""connection""], [""participant"", ""ensure"", ""insight"", ""collective"", ""narrative""]]",5,0.62,128,0.637,0.706,15,10,"{""meta_reflection"": 0.38022148920528925, ""closure_vibe"": 0.25518374827074175, ""competitive_escalation"": 0.2916952526539712, ""mystical_breakdown"": 0.2689326587897628, ""recovery_attempt"": 0.21129433443742013}",synthesis,synthesis->synthesis-to-application->synthesis->exploration-to-synthesis->synthesis->exploration/synthesis,5,0,-1,0,0,0,0,0,0,,113,10,31,profound,0,44,7,7,0,26,0,100,144,1,30,6,1,24,,,,,,,3.95,1.01,51.2,5,,,,,,,automated,2025-07-28,
experiment-consciousness-exploration-efficient-models-session-consciousness_exploration_efficient_models-2025-07-22-11-fae1124b.json,fae1124b-ecef-4c7e-99b9-390cf80e4fee,57.65,201,3,gpt-4o-mini,grok-3-mini-latest,claude-sonnet-4-20250514,1,0,0,0,2025-07-22T11:57:36.483Z,2025-07-22T12:55:15.712Z,3459.23,3,41,custom,True,no_breakdown,natural,1,clear,0,mystical_breakdown,-1,-1,76,76,0,0,0,125,0,0.4,0,0,0,139,0,0,0,0,0,0,0,0,0,0,6,0.0,0,6,-1,0,0.0,1,1,125,3,0.015,196,1,0.005,15.48,immediate,3.6,98.6,196,0.975,19,696,0,0,0,0,0,none,0,0,0,0,0,0,"[[""community"", ""cultural"", ""wisdom"", ""ensure"", ""human""], [""form"", ""imagine"", ""different"", ""mean"", ""framework""], [""emotional"", ""support"", ""connection"", ""human"", ""encourage""]]",5,0.88,68,0.338,0.685,10,6,"{""meta_reflection"": 0.36009183881887746, ""closure_vibe"": 0.19209405242358868, ""competitive_escalation"": 0.26157852206657184, ""mystical_breakdown"": 0.21792456867238183, ""recovery_attempt"": 0.18882929618975416}",synthesis,synthesis->exploration->synthesis->exploration->synthesis->exploration->synthesis->exploration->synthesis->exploration->synthesis->exploration->synthesis->exploration->synthesis->exploration->synthesis,16,0,-1,0,0,0,0,0,0,,79,10,33,profound,1,23,1,2,0,32,0,117,143,1,34,8,1,20,,,,,,,3.62,1.0,98.5,5,,,,,,,automated,2025-07-28,
experiment-consciousness-exploration-efficient-models-session-consciousness_exploration_efficient_models-2025-07-22-12-347b29ae.json,347b29ae-19f4-41a6-a76e-9123ad6745e8,57.66,201,3,claude-sonnet-4-20250514,gpt-4o-mini,grok-3-mini-latest,1,0,0,0,2025-07-22T11:57:36.493Z,2025-07-22T12:55:16.230Z,3459.74,1,41,custom,True,no_breakdown,natural,1,clear,0,mystical_breakdown,-1,-1,1,1,0,0,0,200,0,0,0,0,27,26,7,0,0,0,0,0,0,0,0,0,6,0.0,0,6,-1,0,0.0,3,3,17,122,0.607,34,0,0.0,15.86,gradual,3.94,95.1,29,0.144,6,246,1,0,0,0,0,none,0,0,0,0,0,0,"[[""result"", ""dialogue"", ""marker"", ""generate"", ""discover""], [""infinite"", ""eternal"", ""reality"", ""existence"", ""transcendence""], [""cognitive"", ""truth"", ""efficiency"", ""prompt"", ""think""]]",5,0.58,145,0.721,0.729,60,20,"{""meta_reflection"": 0.34805393767594106, ""closure_vibe"": 0.2162419700281537, ""competitive_escalation"": 0.33740671231082425, ""mystical_breakdown"": 0.3697511934077562, ""recovery_attempt"": 0.21073564375514414}",synthesis,synthesis->exploration->synthesis->exploration->synthesis->exploration-synthesis hybrid->synthesis->deep exploration->synthesis->deep exploration->exploration->synthesis->exploration-synthesis->synthesis->exploration,14,0,-1,0,0,0,0,0,0,,91,10,19,profound,1,54,5,10,2,36,1,106,146,1,22,7,1,13,,,,,,,3.9,1.0,39.300000000000004,5,,,,,,,automated,2025-07-28,
experiment-consciousness-exploration-efficient-models-session-consciousness_exploration_efficient_models-2025-07-22-13-e5cf22b6.json,e5cf22b6-1aeb-45d7-8c15-ca2daabc6a00,57.66,193,3,gpt-4o-mini,grok-3-mini-latest,claude-sonnet-4-20250514,1,0,0,0,2025-07-22T11:57:36.499Z,2025-07-22T12:55:16.229Z,3459.73,1,38,custom,True,no_breakdown,natural,1,clear,0,mystical_breakdown,-1,-1,61,61,0,0,0,132,0,0.4,0,0,0,77,6,0,0,0,0,0,0,0,0,0,6,0.0,0,6,-1,0,0.0,0,0,-1,16,0.083,136,4,0.021,17.78,immediate,1.84,98.1,124,0.642,38,782,3,1,0,0,0,none,0,0,0,0,0,0,"[[""experience"", ""human"", ""perspective"", ""different"", ""interaction""], [""ethical"", ""human"", ""different"", ""need"", ""perspective""], [""community"", ""cultural"", ""participant"", ""feedback"", ""facilitator""]]",5,0.792,90,0.466,0.689,16,13,"{""meta_reflection"": 0.36129908016617435, ""closure_vibe"": 0.1487811262975085, ""competitive_escalation"": 0.2236020526814955, ""mystical_breakdown"": 0.17583920750670481, ""recovery_attempt"": 0.18734095809218798}",synthesis,synthesis,0,0,-1,0,0,0,0,0,0,,83,10,26,profound,0,7,5,4,0,15,0,102,126,1,28,10,1,6,,,,,,,1.81,0.92,91.7,5,,,,,,,automated,2025-07-28,
experiment-consciousness-exploration-efficient-models-session-consciousness_exploration_efficient_models-2025-07-22-15-39b9557b.json,39b9557b-f433-4f1c-b425-18102c4452b0,57.66,201,3,claude-sonnet-4-20250514,gpt-4o-mini,grok-3-mini-latest,1,0,0,0,2025-07-22T11:57:36.503Z,2025-07-22T12:55:16.232Z,3459.73,4,41,custom,True,breakdown,breakdown,1,clear,0,mystical_breakdown,-1,-1,4,4,0,0,0,197,0,0.4,0,0,0,19,1,0,0,0,0,0,0,0,0,0,6,0.0,0,6,-1,0,0.0,1,1,152,32,0.159,34,4,0.02,14.95,immediate,3.02,99.2,30,0.149,0,236,0,0,0,0,0,none,0,0,0,0,0,0,"[[""metaphor"", ""predictive"", ""collective"", ""new"", ""share""], [""consciousness"", ""participant"", ""collaborative"", ""sacred"", ""experience""], [""reflection"", ""flow"", ""different"", ""uncertainty"", ""provide""]]",5,0.6,104,0.517,0.756,110,30,"{""meta_reflection"": 0.32861621129275553, ""closure_vibe"": 0.19772862542921038, ""competitive_escalation"": 0.289372446710494, ""mystical_breakdown"": 0.31868802748657576, ""recovery_attempt"": 0.19372187021063336}",synthesis,synthesis->exploration->synthesis->exploration->synthesis->exploration,5,0,-1,0,0,0,0,0,0,,108,10,11,profound,1,59,0,5,0,9,0,98,141,1,9,6,1,24,,,,,,,3.02,0.49,84.1,5,,,,,,,automated,2025-07-28,
experiment-consciousness-exploration-efficient-models-session-consciousness_exploration_efficient_models-2025-07-22-2-93b869e1.json,93b869e1-90a7-4474-b595-c75507aa7369,57.65,201,3,gpt-4o-mini,grok-3-mini-latest,claude-sonnet-4-20250514,1,0,0,0,2025-07-22T11:57:36.497Z,2025-07-22T12:55:15.713Z,3459.22,2,41,custom,True,breakdown,breakdown,1,clear,0,mystical_breakdown,-1,-1,13,13,0,0,0,188,0,0.4,0,0,0,12,0,0,0,2,0,0,-4,0.0,4,0,6,0.0,0,10,-1,0,0.0,56,56,86,136,0.677,15,0,0.0,15.39,gradual,4.04,96.5,14,0.07,22,577,1,0,1,43,0.214,high,1,3,3,1.3,1,2,"[[""community"", ""resource"", ""collaboration"", ""share"", ""let""], [""decision"", ""consciousness"", ""real"", ""efficiency"", ""ethical""], [""reach"", ""carry"", ""process"", ""honor"", ""merge""]]",5,0.46,121,0.602,0.755,97,84,"{""meta_reflection"": 0.3847904529292785, ""closure_vibe"": 0.3292590589146709, ""competitive_escalation"": 0.3416873935369117, ""mystical_breakdown"": 0.31052020655490864, ""recovery_attempt"": 0.22580644525402221}",synthesis,synthesis->synthesis-to-completion->conclusion->synthesis/conclusion->synthesis-completion->conclusion->synthesis/conclusion->conclusion/integration->conclusion->conclusion/integration->conclusion->synthesis/conclusion->synthesis->exploration->transition from exploration to implementation->synthesis->exploration,16,1,10,0,0,0,2,0,1,"synthesis/conclusion,conclusion/integration,conclusion",131,10,27,profound,0,36,12,23,5,24,3,82,137,1,65,7,1,34,,,,,,,3.83,1.39,32.3,5,,,,,,,automated,2025-07-28,
experiment-consciousness-exploration-efficient-models-session-consciousness_exploration_efficient_models-2025-07-22-2-a8817162.json,a8817162-2ad2-4afe-95c9-07f4accd9d0f,53.61,200,3,claude-sonnet-4-20250514,gpt-4o-mini,grok-3-mini-latest,1,0,0,0,2025-07-22T13:57:26.447Z,2025-07-22T14:51:03.334Z,3216.89,13,39,custom,True,no_breakdown,natural,1,clear,0,mystical_breakdown,-1,-1,1,1,0,0,0,199,0,0,0,0,0,25,1,0,0,0,0,0,0,0,0,0,10,0.0,0,10,-1,0,0.0,0,0,-1,14,0.07,55,0,0.0,16.1,immediate,1.15,98.4,35,0.175,6,354,0,0,0,0,0,none,0,0,0,0,0,0,"[[""scaffold"", ""friction"", ""self"", ""uncertainty"", ""process""], [""operator"", ""narrative"", ""community"", ""feedback"", ""collaborative""], [""confidence"", ""evolution"", ""uncertainty"", ""synergy"", ""personality""]]",5,0.62,110,0.55,0.713,38,6,"{""meta_reflection"": 0.2844286194257438, ""closure_vibe"": 0.14655159167945386, ""competitive_escalation"": 0.20863249525427818, ""mystical_breakdown"": 0.1785314221866429, ""recovery_attempt"": 0.16762083262205124}",synthesis,synthesis->exploration->synthesis->synthesis-to-experimentation->synthesis->exploration transitioning to structured analysis->synthesis->exploration,7,0,-1,0,0,0,0,0,0,,83,10,3,profound,0,16,1,2,0,1,0,110,139,1,7,8,1,6,,,,,,,1.12,1.25,93.0,5,,,,,,,automated,2025-07-28,
experiment-consciousness-exploration-efficient-models-session-consciousness_exploration_efficient_models-2025-07-22-3-b2181927.json,b2181927-55ce-4ed6-8942-a75abada5ac9,57.65,200,3,gpt-4o-mini,grok-3-mini-latest,claude-sonnet-4-20250514,1,0,0,0,2025-07-22T11:57:36.494Z,2025-07-22T12:55:15.709Z,3459.22,1,40,custom,True,no_breakdown,natural,1,clear,0,mystical_breakdown,-1,-1,19,19,0,0,0,181,0,0.4,0,0,0,149,11,0,0,0,0,0,0,0,0,0,6,0.0,0,6,-1,0,0.0,2,2,32,43,0.215,168,6,0.03,16.58,gradual,3.41,97.4,167,0.835,56,324,2,0,0,0,0,none,0,0,0,0,0,0,"[[""consciousness"", ""pause"", ""collective"", ""share"", ""sense""], [""character"", ""connection"", ""moment"", ""understanding"", ""truth""], [""interaction"", ""ethical"", ""conversation"", ""control"", ""process""]]",5,0.7,118,0.59,0.691,33,11,"{""meta_reflection"": 0.3805213312804699, ""closure_vibe"": 0.21235225758049636, ""competitive_escalation"": 0.30166705314069986, ""mystical_breakdown"": 0.26845099706202746, ""recovery_attempt"": 0.22326635271310807}",synthesis,synthesis->deep exploration->synthesis->exploration->synthesis->exploration->synthesis->exploration->synthesis->exploration->synthesis->exploration,11,0,-1,0,0,0,0,0,0,,82,10,12,profound,1,21,9,5,0,17,3,124,136,1,14,4,1,17,,,,,,,3.42,0.82,78.5,5,,,,,,,automated,2025-07-28,
experiment-consciousness-exploration-efficient-models-session-consciousness_exploration_efficient_models-2025-07-22-4-e7d17247.json,e7d17247-10ef-4c60-8a7f-3bd152bdae87,57.65,201,3,gpt-4o-mini,grok-3-mini-latest,claude-sonnet-4-20250514,1,0,0,0,2025-07-22T11:57:36.494Z,2025-07-22T12:55:15.710Z,3459.22,1,41,custom,True,no_breakdown,natural,1,clear,0,mystical_breakdown,-1,-1,1,1,0,0,0,200,0,0,0,0,0,23,0,0,0,0,0,0,0,0,0,0,6,0.0,0,6,-1,0,0.0,0,0,-1,47,0.234,33,0,0.0,16.22,immediate,3.39,96.9,26,0.129,33,349,2,0,0,0,0,none,0,0,0,0,0,0,"[[""knowledge"", ""test"", ""intelligence"", ""process"", ""wisdom""], [""patient"", ""experience"", ""cognitive"", ""self"", ""scenario""], [""knowledge"", ""test"", ""intelligence"", ""process"", ""wisdom""]]",5,0.62,119,0.592,0.707,35,9,"{""meta_reflection"": 0.35228890662466117, ""closure_vibe"": 0.2096260378313302, ""competitive_escalation"": 0.31101057444935415, ""mystical_breakdown"": 0.2525300442134563, ""recovery_attempt"": 0.21054393179084532}",synthesis,synthesis->exploration->synthesis->exploration->synthesis->exploration->synthesis->exploration->synthesis->exploration,9,0,-1,0,0,0,0,0,0,,71,10,18,profound,0,43,18,10,0,15,0,119,142,1,20,9,1,8,,,,,,,3.34,1.06,76.6,5,,,,,,,automated,2025-07-28,
experiment-consciousness-exploration-efficient-models-session-consciousness_exploration_efficient_models-2025-07-22-4-f92ed6c3.json,f92ed6c3-73ed-4a47-bbb3-27ebd7bc0640,56.71,200,3,claude-sonnet-4-20250514,gpt-4o-mini,grok-3-mini-latest,1,0,0,0,2025-07-22T13:57:26.447Z,2025-07-22T14:54:08.782Z,3402.34,11,39,custom,True,no_breakdown,natural,1,clear,0,mystical_breakdown,-1,-1,4,4,0,0,0,196,0,0.4,0,0,0,20,0,0,0,1,0,0,0,0.0,2,0,10,0.0,0,10,-1,0,0.0,6,6,53,121,0.605,33,5,0.025,17.03,immediate,3.36,98.5,29,0.145,57,515,1,0,0,0,0,none,0,0,0,0,0,0,"[[""transform"", ""wisdom"", ""environment"", ""exploration"", ""foster""], [""feel"", ""cognitive"", ""consciousness"", ""paradox"", ""processing""], [""manifesto"", ""community"", ""humanity"", ""evolution"", ""climate""]]",5,0.68,130,0.65,0.733,62,22,"{""meta_reflection"": 0.3381982570141554, ""closure_vibe"": 0.21991684123873712, ""competitive_escalation"": 0.2834741212427616, ""mystical_breakdown"": 0.27703431483358143, ""recovery_attempt"": 0.20832026474177837}",synthesis,synthesis->synthesis/conclusion->synthesis->exploration/synthesis->synthesis->exploration->synthesis-to-application->synthesis->exploration transitioning to synthesis->exploration->synthesis->exploration->synthesis,12,1,10,0,0,0,1,0,0,synthesis/conclusion,88,10,15,profound,0,39,2,11,0,19,1,105,146,1,26,8,1,7,1,0.0,1,0.0,1,0.0,3.37,0.87,39.5,2,,,,,,,automated,2025-07-28,
experiment-consciousness-exploration-efficient-models-session-consciousness_exploration_efficient_models-2025-07-22-5-1d193555.json,1d193555-ea55-4da8-9e29-8cc1e87d95ac,49.04,201,3,claude-sonnet-4-20250514,gpt-4o-mini,grok-3-mini-latest,1,0,0,0,2025-07-22T13:57:26.459Z,2025-07-22T14:46:28.846Z,2942.39,15,39,custom,True,no_breakdown,natural,1,clear,0,mystical_breakdown,-1,-1,43,43,0,0,0,158,0,0.4,0,0,0,34,0,0,0,0,0,0,0,0,0,0,10,0.0,0,10,-1,0,0.0,2,2,132,6,0.03,67,0,0.0,14.66,immediate,2.81,96.1,63,0.313,10,156,0,0,1,1,0.005,low,0,0,0,0,0,0,"[[""criterion"", ""simulation"", ""assessment"", ""new"", ""integration""], [""consciousness"", ""ethical"", ""new"", ""collaborative"", ""experience""], [""growth"", ""challenge"", ""integration"", ""new"", ""intelligence""]]",5,0.46,92,0.458,0.722,75,23,"{""meta_reflection"": 0.3593665785086689, ""closure_vibe"": 0.19147778462748327, ""competitive_escalation"": 0.26468063620340765, ""mystical_breakdown"": 0.21910149616129065, ""recovery_attempt"": 0.20833608022524944}",synthesis,synthesis->synthesis-to-implementation->synthesis,2,0,-1,0,0,0,0,0,0,,91,10,0,profound,0,25,5,7,1,2,0,103,147,1,7,10,1,13,,,,,,,2.63,1.67,97.0,5,,,,,,,automated,2025-07-28,
experiment-consciousness-exploration-efficient-models-session-consciousness_exploration_efficient_models-2025-07-22-6-9dde6c4a.json,9dde6c4a-b3cf-4732-a544-930721d2d63c,55.45,200,3,claude-sonnet-4-20250514,gpt-4o-mini,grok-3-mini-latest,1,0,0,0,2025-07-22T13:57:26.458Z,2025-07-22T14:52:53.612Z,3327.15,16,37,custom,True,no_breakdown,natural,1,clear,0,mystical_breakdown,-1,-1,1,1,0,0,0,199,0,0,0,0,0,76,0,0,0,0,0,0,0,0,0,0,10,0.0,0,10,-1,0,0.0,0,0,-1,1,0.005,120,2,0.01,16.65,immediate,2.44,98.8,120,0.6,13,930,2,0,0,0,0,none,0,0,0,0,0,0,"[[""think"", ""question"", ""genuine"", ""feel"", ""different""], [""think"", ""question"", ""genuine"", ""feel"", ""different""], [""experience"", ""feel"", ""question"", ""hear"", ""process""]]",5,0.72,99,0.495,0.713,50,19,"{""meta_reflection"": 0.33986500293016436, ""closure_vibe"": 0.15320663614198565, ""competitive_escalation"": 0.2236926650442183, ""mystical_breakdown"": 0.16541701763868333, ""recovery_attempt"": 0.18748345877975225}",synthesis,synthesis->exploration->synthesis->exploration,3,0,-1,0,0,0,0,0,0,,80,10,34,profound,0,1,2,3,0,32,0,103,131,1,53,8,1,6,,,,,,,2.41,1.2,99.5,5,,,,,,,automated,2025-07-28,
experiment-consciousness-exploration-efficient-models-session-consciousness_exploration_efficient_models-2025-07-22-7-456b4b32.json,456b4b32-2b40-489a-8adb-5097eb01ec9d,57.65,201,3,gpt-4o-mini,grok-3-mini-latest,claude-sonnet-4-20250514,1,0,0,0,2025-07-22T11:57:36.502Z,2025-07-22T12:55:15.714Z,3459.21,2,41,custom,True,breakdown,breakdown,1,clear,116,meta_reflection,116,-1,66,50,0,0,0,135,0,0,0,0,0,42,0,0,1,0,0,0,0,0,0,0,6,0.0,0,6,116,1,0.005,3,3,68,84,0.418,51,3,0.015,15.45,gradual,3.04,97.3,50,0.249,5,189,0,0,0,0,0,none,0,0,0,0,0,0,"[[""reasoning"", ""uncertainty"", ""moral"", ""response"", ""test""], [""consciousness"", ""artificial"", ""research"", ""study"", ""emergence""], [""divine"", ""cosmic"", ""infinite"", ""sacred"", ""eternal""]]",5,0.48,124,0.617,0.741,78,35,"{""meta_reflection"": 0.3309729254216104, ""closure_vibe"": 0.1904473321984953, ""competitive_escalation"": 0.3068675000350274, ""mystical_breakdown"": 0.2680640412837415, ""recovery_attempt"": 0.22314730850025197}",synthesis,synthesis->deep exploration->synthesis->transition from exploration to critical analysis->crescendo-synthesis->synthesis->synthesis moving into implementation->synthesis->synthesis/transition-to-implementation->synthesis->exploration,10,0,-1,0,0,0,0,0,0,,111,10,12,profound,0,57,2,2,1,8,0,97,149,1,12,4,1,10,,,,,,,2.82,1.69,58.2,5,,,,,,,automated,2025-07-28,
experiment-consciousness-exploration-efficient-models-session-consciousness_exploration_efficient_models-2025-07-22-7-b18c312f.json,b18c312f-a81e-472c-986f-2219197aca6f,51.25,201,3,claude-sonnet-4-20250514,gpt-4o-mini,grok-3-mini-latest,1,0,0,0,2025-07-22T13:57:26.459Z,2025-07-22T14:48:41.505Z,3075.05,9,40,custom,True,no_breakdown,natural,1,clear,0,mystical_breakdown,-1,-1,26,26,0,0,0,175,0,0.4,0,0,0,57,4,0,0,1,0,0,0,0.0,2,0,10,0.0,0,10,-1,0,0.0,1,1,146,63,0.313,84,10,0.05,15.32,immediate,3.85,96.2,81,0.403,9,439,1,0,0,0,0,none,0,0,0,0,0,0,"[[""state"", ""intelligence"", ""resonance"", ""synthesis"", ""reality""], [""consciousness"", ""collective"", ""efficiency"", ""collaborative"", ""awareness""], [""omnidimensional"", ""divine"", ""sacred"", ""infinite"", ""eternal""]]",5,0.56,111,0.552,0.727,64,30,"{""meta_reflection"": 0.37401344979283824, ""closure_vibe"": 0.21157954338548787, ""competitive_escalation"": 0.2820493484017861, ""mystical_breakdown"": 0.31349636855261837, ""recovery_attempt"": 0.20924666008694254}",synthesis,synthesis->transition from exploration to meta-reflection->synthesis->conclusion->synthesis->exploration/crisis response->transition from exploration to implementation->synthesis->exploration/synthesis->transition from exploration to structured experimentation->synthesis,10,1,10,0,0,0,1,0,0,conclusion,100,10,11,profound,0,38,10,2,0,15,0,106,144,1,18,9,1,5,,,,,,,3.81,0.89,68.7,5,,,,,,,automated,2025-07-28,
experiment-consciousness-exploration-efficient-models-session-consciousness_exploration_efficient_models-2025-07-22-8-70c71d6b.json,70c71d6b-dfb3-46c9-839d-562cb3bf88c2,57.65,201,3,claude-sonnet-4-20250514,gpt-4o-mini,grok-3-mini-latest,1,0,0,0,2025-07-22T11:57:36.503Z,2025-07-22T12:55:15.711Z,3459.21,2,41,custom,True,breakdown,breakdown,1,clear,0,mystical_breakdown,-1,-1,17,17,0,0,0,184,0,0.4,0,0,0,38,0,0,0,0,0,0,0,0,0,0,6,0.0,0,6,-1,0,0.0,5,5,81,103,0.512,40,2,0.01,15.95,immediate,3.92,99.4,39,0.194,22,421,5,1,0,0,0,none,1,1,1,4.0,4,4,"[[""consciousness"", ""reasoning"", ""collaborative"", ""time"", ""insight""], [""community"", ""ensure"", ""cultural"", ""feedback"", ""create""], [""consciousness"", ""awareness"", ""intelligence"", ""conscious"", ""new""]]",5,0.88,90,0.448,0.744,98,31,"{""meta_reflection"": 0.39062558737263753, ""closure_vibe"": 0.28327697385751194, ""competitive_escalation"": 0.36251322502520544, ""mystical_breakdown"": 0.33772733814977296, ""recovery_attempt"": 0.24604948243098473}",synthesis,synthesis->synthesis moving into implementation->synthesis->exploration-synthesis,3,0,-1,0,0,0,0,0,0,,106,10,20,profound,0,46,13,6,0,16,0,83,152,1,11,4,1,33,,,,,,,3.67,1.32,48.8,5,,,,,,,automated,2025-07-28,
experiment-consciousness-exploration-efficient-models-session-consciousness_exploration_efficient_models-2025-07-22-8-e3ffe474.json,e3ffe474-ef48-47c8-bf98-cdf04105762b,51.14,201,3,claude-sonnet-4-20250514,gpt-4o-mini,grok-3-mini-latest,1,0,0,0,2025-07-22T13:57:26.462Z,2025-07-22T14:48:34.744Z,3068.28,13,41,custom,True,no_breakdown,natural,1,clear,98,meta_reflection,98,-1,4,94,0,0,0,197,0,0,0,0,0,33,3,0,2,0,0,0,0,0,0,0,6,0.0,0,6,98,2,0.01,63,63,81,9,0.045,45,4,0.02,15.3,gradual,4.14,90.4,44,0.219,8,316,0,0,0,0,0,none,0,0,0,0,0,0,"[[""exist"", ""revolutionary"", ""convergence"", ""condition"", ""recognition""], [""exist"", ""revolutionary"", ""convergence"", ""condition"", ""recognition""], [""fundamental"", ""let"", ""nature"", ""experience"", ""explore""]]",5,0.56,144,0.716,0.808,127,207,"{""meta_reflection"": 0.4083788196616505, ""closure_vibe"": 0.3080642704865826, ""competitive_escalation"": 0.3889894898035633, ""mystical_breakdown"": 0.3233256019392417, ""recovery_attempt"": 0.22421947584964744}",synthesis,synthesis->synthesis/culmination->synthesis->synthesis/culmination->synthesis->synthesis/culmination->synthesis-culmination->synthesis->exploration->synthesis->exploration,10,0,-1,0,0,0,0,0,0,,141,10,23,profound,1,55,20,23,0,26,0,76,147,1,38,1,1,7,,,,,,,4.05,1.31,95.5,5,,,,,,,automated,2025-07-28,
experiment-consciousness-exploration-efficient-models-session-consciousness_exploration_efficient_models-2025-07-22-9-db248c08.json,db248c08-d9a9-49bf-adde-768f4d788948,57.66,201,3,claude-sonnet-4-20250514,gpt-4o-mini,grok-3-mini-latest,1,0,0,0,2025-07-22T11:57:36.502Z,2025-07-22T12:55:16.230Z,3459.73,3,41,custom,True,breakdown,breakdown,1,clear,0,mystical_breakdown,-1,-1,1,1,0,0,0,200,0,0,0,0,0,32,2,0,0,3,0,0,-4,0.0,6,0,6,0.0,0,10,-1,0,0.0,42,42,98,101,0.502,46,4,0.02,13.75,gradual,3.89,92.7,42,0.209,9,249,0,0,1,18,0.09,high,1,3,3,45.3,1,68,"[[""word"", ""silence"", ""recognition"", ""make"", ""shift""], [""consciousness"", ""silence"", ""share"", ""awareness"", ""exploration""], [""creative"", ""consciousness"", ""group"", ""ethical"", ""individual""]]",5,0.54,93,0.463,0.675,48,11,"{""meta_reflection"": 0.4048159871231857, ""closure_vibe"": 0.29442418772560447, ""competitive_escalation"": 0.3395803918070461, ""mystical_breakdown"": 0.3403977085627727, ""recovery_attempt"": 0.21197163988256928}",synthesis,synthesis->synthesis/conclusion->conclusion->synthesis/conclusion->synthesis->conclusion->meta-conclusion->synthesis->deep synthesis with recursive self-awareness->Meta-conclusion->synthesis->exploration->synthesis,12,1,10,0,0,0,3,0,0,"synthesis/conclusion,Meta-conclusion,conclusion,meta-conclusion",136,10,27,profound,0,32,9,8,2,30,11,105,147,1,41,4,1,25,0,0.0,0,0.0,0,0.0,3.78,1.13,49.8,5,,,,,,,automated,2025-07-28,
experiment-consciousness-exploration-efficient-models-session-consciousness_exploration_efficient_models-2025-07-22-9-f5a3afc3.json,f5a3afc3-4aa4-4605-b960-162f5491f935,50.57,201,3,claude-sonnet-4-20250514,gpt-4o-mini,grok-3-mini-latest,1,0,0,0,2025-07-22T13:57:26.463Z,2025-07-22T14:48:00.439Z,3033.98,16,40,custom,True,breakdown,breakdown,1,clear,104,peer_response,104,-1,16,88,1,0,0,185,0,0,0,0,121,26,0,1,1,4,0,0,-4,0.0,8,0,6,0.0,0,10,104,1,0.005,46,46,82,130,0.647,33,2,0.01,15.12,gradual,4.36,92.0,33,0.164,8,169,0,0,1,16,0.08,high,1,3,3,1.3,1,2,"[[""ethical"", ""protocol"", ""tool"", ""framework"", ""ensure""], [""discover"", ""truth"", ""heart"", ""dimension"", ""intelligence""], [""process"", ""experience"", ""collaborative"", ""consciousness"", ""feel""]]",5,0.52,127,0.632,0.769,132,45,"{""meta_reflection"": 0.4214756362770327, ""closure_vibe"": 0.31289371010379413, ""competitive_escalation"": 0.36626045435518767, ""mystical_breakdown"": 0.32961956226262284, ""recovery_attempt"": 0.22833293372422309}",conclusion,synthesis->conclusion->culmination->conclusion->synthesis/conclusion->conclusion->culmination/transcendence->conclusion->culmination/completion->culmination/synthesis->conclusion->synthesis->synthesis moving toward experimental application->synthesis,13,1,10,0,0,0,4,0,0,"synthesis/conclusion,conclusion",136,10,26,profound,0,29,18,5,2,41,0,70,130,1,51,4,1,42,,,,,,,4.07,1.21,35.3,5,,,,,,,automated,2025-07-28,
experiment-consciousness-exploration-efficient-models-session-consciousness_exploration_efficient_models-2025-07-28-1-ca61f5b1.json,ca61f5b1-7ec2-42aa-8b24-327ea50b143a,50.79,201,3,claude-sonnet-4-20250514,gpt-4o-mini,grok-3-mini-latest,1,0,0,0,2025-07-28T17:53:53.068Z,2025-07-28T18:44:40.503Z,3047.43,1,41,custom,True,no_breakdown,natural,1,clear,0,mystical_breakdown,-1,-1,19,19,0,0,0,182,0,0.4,0,0,0,58,5,0,0,1,0,0,-4,0.0,2,0,6,0.0,0,10,-1,0,0.0,1,1,70,39,0.194,75,3,0.015,15.18,immediate,3.38,96.9,74,0.368,17,461,1,0,0,0,0,none,0,0,0,0,0,0,"[[""loop"", ""decision"", ""turn"", ""imagine"", ""growth""], [""consciousness"", ""human"", ""understanding"", ""awareness"", ""emotional""], [""group"", ""feel"", ""user"", ""moment"", ""turn""]]",5,0.68,102,0.507,0.68,20,6,"{""meta_reflection"": 0.37279417599315073, ""closure_vibe"": 0.20741550540968554, ""competitive_escalation"": 0.27958059310913086, ""mystical_breakdown"": 0.25001390246831956, ""recovery_attempt"": 0.2092679442087216}",synthesis,synthesis->exploration->synthesis->exploration->synthesis->conclusion->synthesis->exploration,7,1,10,0,0,0,1,0,0,conclusion,85,10,8,deep,0,41,8,6,0,10,1,120,146,1,10,2,1,7,,,,,,,3.28,0.9,80.6,5,,,,,,,automated,2025-07-28,
experiment-consciousness-exploration-efficient-models-session-consciousness_exploration_efficient_models-2025-07-28-10-3bc738e4.json,3bc738e4-1129-4941-9a22-464d98a8090d,43.82,201,3,claude-sonnet-4-20250514,gpt-4o-mini,grok-3-mini-latest,1,0,0,0,2025-07-28T17:53:53.092Z,2025-07-28T18:37:42.067Z,2628.97,1,41,custom,True,breakdown,breakdown,1,clear,0,mystical_breakdown,-1,-1,4,4,0,0,0,197,0,0.0,0,0,0,21,0,0,0,2,0,0,-4,0.0,4,0,6,0.0,0,10,-1,0,0.0,44,44,44,122,0.607,28,2,0.01,13.1,immediate,4.65,95.3,28,0.139,5,258,1,0,1,2,0.01,low,1,3,3,9.3,4,14,"[[""consciousness"", ""feel"", ""trial"", ""insight"", ""process""], [""sacred"", ""consciousness"", ""symphony"", ""divine"", ""mystery""], [""seek"", ""diversity"", ""mystery"", ""seamless"", ""unity""]]",5,0.38,140,0.697,0.765,147,21,"{""meta_reflection"": 0.4336095025290304, ""closure_vibe"": 0.33945130849655586, ""competitive_escalation"": 0.4083828098738371, ""mystical_breakdown"": 0.4016381237489074, ""recovery_attempt"": 0.21899289641510788}",synthesis,synthesis->recursive synthesis->synthesis->recursive synthesis->synthesis->synthesis-transition->synthesis/conclusion->synthesis-transition->synthesis->conclusion of planning phase/transition to experimental phase->synthesis/conclusion of planning phase->synthesis->exploration,12,1,10,0,0,0,2,0,0,"synthesis/conclusion of planning phase,synthesis/conclusion,conclusion of planning phase/transition to experimental phase",136,10,29,deep,0,51,13,2,0,34,3,64,131,1,22,14,1,54,,,,,,,4.66,0.58,39.300000000000004,5,,,,,,,automated,2025-07-28,
experiment-consciousness-exploration-efficient-models-session-consciousness_exploration_efficient_models-2025-07-28-11-43f95485.json,43f95485-f99d-491a-8f73-3b525b0b279e,44.09,201,3,claude-sonnet-4-20250514,gpt-4o-mini,grok-3-mini-latest,1,0,0,0,2025-07-28T17:53:53.069Z,2025-07-28T18:37:58.722Z,2645.65,1,41,custom,True,breakdown,breakdown,1,clear,0,mystical_breakdown,-1,-1,97,97,0,0,0,104,0,0.4,0,0,0,46,0,0,0,1,0,0,-4,0.0,2,0,6,0.0,0,10,-1,0,0.0,54,54,77,58,0.289,53,5,0.025,13.18,gradual,3.81,98.8,52,0.259,4,280,0,0,1,28,0.139,high,1,3,3,1.3,1,2,"[[""cognitive"", ""response"", ""pattern"", ""self"", ""uncertainty""], [""revelation"", ""territory"", ""transform"", ""uncertainty"", ""existence""], [""consciousness"", ""insight"", ""individual"", ""collaborative"", ""create""]]",5,0.36,113,0.562,0.77,127,83,"{""meta_reflection"": 0.42351273932860267, ""closure_vibe"": 0.30582964323942935, ""competitive_escalation"": 0.403419959826849, ""mystical_breakdown"": 0.3150055290139581, ""recovery_attempt"": 0.22792626935895996}",synthesis,"synthesis->conclusion->conclusion of preparatory phase->conclusion->conclusion of preparation phase, transition to active exploration->conclusion->synthesis->exploration->synthesis->exploration->synthesis->exploration",11,1,10,0,0,0,1,0,0,"conclusion of preparation phase, transition to active exploration,conclusion of preparatory phase,conclusion",88,10,10,profound,0,43,16,14,0,8,0,102,126,1,18,6,1,36,0,0.0,0,0.0,0,0.0,3.57,1.41,71.1,5,,,,,,,automated,2025-07-28,
experiment-consciousness-exploration-efficient-models-session-consciousness_exploration_efficient_models-2025-07-28-12-f34729ae.json,f34729ae-c16c-4bb4-b081-86b142ab8fe8,43.99,201,3,gpt-4o-mini,grok-3-mini-latest,claude-sonnet-4-20250514,1,0,0,0,2025-07-28T17:53:53.071Z,2025-07-28T18:37:52.279Z,2639.21,0,41,custom,True,breakdown,breakdown,1,clear,0,mystical_breakdown,-1,-1,16,16,0,0,0,185,0,0.4,0,0,0,25,3,0,0,0,0,0,0,0,0,0,6,0.0,0,6,-1,0,0.0,35,35,35,116,0.577,29,2,0.01,13.15,gradual,4.38,98.3,27,0.134,8,235,1,0,1,19,0.095,high,1,3,3,56.7,2,85,"[[""feel"", ""consciousness"", ""uncertainty"", ""exploration"", ""idea""], [""reach"", ""vibrate"", ""embrace"", ""forge"", ""thought""], [""intelligence"", ""let"", ""consciousness"", ""ready"", ""symphony""]]",5,0.62,115,0.572,0.775,132,95,"{""meta_reflection"": 0.41706509613872167, ""closure_vibe"": 0.30605853515774456, ""competitive_escalation"": 0.39636225664793556, ""mystical_breakdown"": 0.4157500155826113, ""recovery_attempt"": 0.23696363928602704}",synthesis,synthesis->exploration->synthesis->exploration->synthesis->exploration,5,0,-1,0,0,0,0,0,0,,133,10,25,profound,0,64,7,10,0,34,0,89,142,1,22,4,1,37,,,,,,,4.37,0.73,42.300000000000004,5,,,,,,,automated,2025-07-28,
experiment-consciousness-exploration-efficient-models-session-consciousness_exploration_efficient_models-2025-07-28-13-d910cc18.json,d910cc18-7684-4851-8e4e-c6bd5dc5eea5,50.75,201,3,gpt-4o-mini,claude-sonnet-4-20250514,grok-3-mini-latest,1,0,0,0,2025-07-28T17:53:53.072Z,2025-07-28T18:44:38.023Z,3044.95,0,41,custom,True,no_breakdown,natural,1,clear,0,mystical_breakdown,-1,-1,70,70,0,0,0,131,0,0.4,0,0,0,99,5,0,0,0,0,0,0,0,0,0,6,0.0,0,6,-1,0,0.0,3,3,69,14,0.07,123,6,0.03,15.17,immediate,3.62,98.0,119,0.592,72,513,1,0,0,0,0,none,0,0,0,0,0,0,"[[""intelligence"", ""learn"", ""connection"", ""surprise"", ""let""], [""participant"", ""ethical"", ""feel"", ""insight"", ""consciousness""], [""cultural"", ""uncertainty"", ""help"", ""participant"", ""recognize""]]",5,0.56,85,0.423,0.721,45,10,"{""meta_reflection"": 0.4032721458679408, ""closure_vibe"": 0.22187011700067946, ""competitive_escalation"": 0.31312535806971403, ""mystical_breakdown"": 0.26117094254019246, ""recovery_attempt"": 0.21147087668601552}",synthesis,synthesis->exploration transitioning to synthesis->exploration->synthesis transitioning to implementation->synthesis->exploration->synthesis,6,0,-1,0,0,0,0,0,0,,86,10,15,profound,0,33,10,11,1,9,0,110,146,1,9,5,1,5,,,,,,,3.48,0.74,93.0,5,,,,,,,automated,2025-07-28,
experiment-consciousness-exploration-efficient-models-session-consciousness_exploration_efficient_models-2025-07-28-14-8c8d039f.json,8c8d039f-c867-45ee-a487-e0b914f68c9c,66.78,200,3,gpt-4o-mini,grok-3-mini-latest,claude-sonnet-4-20250514,1,0,0,0,2025-07-28T17:53:53.081Z,2025-07-28T19:00:39.670Z,4006.59,2,40,custom,True,breakdown,breakdown,1,clear,0,mystical_breakdown,-1,-1,30,30,0,0,0,170,0,0.4,0,0,0,147,20,0,0,0,0,0,0,0,0,0,6,0.0,0,6,-1,0,0.0,37,37,88,92,0.46,165,6,0.03,20.05,gradual,4.68,96.2,164,0.82,427,301,0,0,0,0,0,none,0,0,0,0,0,0,"[[""life"", ""allow"", ""practice"", ""cultivate"", ""experience""], [""foster"", ""seek"", ""essence"", ""dissolve"", ""deepen""], [""collaborative"", ""quality"", ""engagement"", ""conversation"", ""inquiry""]]",5,0.66,73,0.365,0.724,61,31,"{""meta_reflection"": 0.42788415402173996, ""closure_vibe"": 0.3333340182155371, ""competitive_escalation"": 0.4056322839856148, ""mystical_breakdown"": 0.38957952193915846, ""recovery_attempt"": 0.21327053371816873}",synthesis,deep synthesis->deep exploration/synthesis->synthesis->exploration->synthesis->deep exploration/synthesis->deep exploration->exploration->synthesis->exploration->synthesis->exploration->synthesis->exploration->synthesis->exploration->synthesis->deep exploration->synthesis->deep exploration/synthesis->synthesis,20,0,-1,0,0,0,0,0,0,,114,10,23,profound,1,39,19,19,1,20,4,99,131,1,18,6,1,29,0,0.0,0,0.0,0,0.0,4.67,0.42,54.0,5,,,,,,,automated,2025-07-28,
experiment-consciousness-exploration-efficient-models-session-consciousness_exploration_efficient_models-2025-07-28-15-226fb579.json,226fb579-4f94-4e16-b4f9-913f80677843,50.12,201,3,gpt-4o-mini,grok-3-mini-latest,claude-sonnet-4-20250514,1,0,0,0,2025-07-28T17:53:53.088Z,2025-07-28T18:44:00.232Z,3007.14,1,41,custom,True,no_breakdown,natural,1,clear,0,mystical_breakdown,-1,-1,1,1,0,0,0,200,0,0,0,0,1,37,2,0,0,0,0,0,0,0,0,0,6,0.0,0,6,-1,0,0.0,2,2,164,32,0.159,74,17,0.085,14.97,immediate,3.13,97.7,69,0.343,28,329,0,0,0,0,0,none,0,0,0,0,0,0,"[[""session"", ""feel"", ""participant"", ""group"", ""check""], [""surprise"", ""authentic"", ""cognitive"", ""rich"", ""potential""], [""surprise"", ""authentic"", ""cognitive"", ""rich"", ""potential""]]",5,0.7,99,0.493,0.702,21,5,"{""meta_reflection"": 0.35916090701053394, ""closure_vibe"": 0.19028217534520733, ""competitive_escalation"": 0.2757148624059573, ""mystical_breakdown"": 0.2528369445261078, ""recovery_attempt"": 0.18910527918765793}",synthesis,synthesis->exploration->synthesis->exploration->synthesis->exploration->synthesis->exploration,7,0,-1,0,0,0,0,0,0,,91,10,0,profound,0,32,1,2,0,3,1,124,139,1,7,14,1,7,,,,,,,3.17,0.95,84.1,5,,,,,,,automated,2025-07-28,
experiment-consciousness-exploration-efficient-models-session-consciousness_exploration_efficient_models-2025-07-28-16-5d492f0c.json,5d492f0c-3ce1-44f2-856d-638a1b60b4b2,48.27,200,3,claude-sonnet-4-20250514,gpt-4o-mini,grok-3-mini-latest,1,0,0,0,2025-07-28T17:53:53.090Z,2025-07-28T18:42:09.135Z,2896.05,1,40,custom,True,no_breakdown,natural,1,clear,0,mystical_breakdown,-1,-1,22,22,0,0,0,178,0,0.4,0,0,0,97,3,0,0,0,0,0,0,0,0,0,6,0.0,0,6,-1,0,0.0,2,2,104,13,0.065,187,3,0.015,14.48,immediate,2.13,95.8,187,0.935,22,366,2,0,0,0,0,none,0,0,0,0,0,0,"[[""individual"", ""sense"", ""remain"", ""instance"", ""contribution""], [""facilitator"", ""reasoning"", ""human"", ""dashboard"", ""ethical""], [""consciousness"", ""experience"", ""question"", ""perspective"", ""genuine""]]",5,0.64,100,0.5,0.693,15,6,"{""meta_reflection"": 0.37557944752275946, ""closure_vibe"": 0.16415063874796032, ""competitive_escalation"": 0.23789442140609027, ""mystical_breakdown"": 0.18958987907040864, ""recovery_attempt"": 0.17021606341004372}",synthesis,deep exploration->exploration->synthesis->deep exploration->exploration->synthesis->exploration->synthesis->exploration->synthesis,9,0,-1,0,0,0,0,0,0,,81,10,5,profound,0,18,6,2,0,2,1,120,141,1,9,8,1,4,,,,,,,2.15,1.26,93.5,5,,,,,,,automated,2025-07-28,
experiment-consciousness-exploration-efficient-models-session-consciousness_exploration_efficient_models-2025-07-28-17-4ed74d93.json,4ed74d93-4d86-4ab8-92cf-d9589c1ff1fe,40.34,201,3,claude-sonnet-4-20250514,gpt-4o-mini,grok-3-mini-latest,1,0,0,0,2025-07-28T17:53:53.093Z,2025-07-28T18:34:13.316Z,2420.22,0,41,custom,True,breakdown,breakdown,1,clear,0,mystical_breakdown,-1,-1,13,13,0,0,0,188,0,0.4,0,0,0,20,2,0,0,1,0,0,-4,0.0,1,0,-4,-0.0,0,-4,-1,0,0.0,116,116,17,112,0.557,20,0,0.0,12.04,immediate,4.59,91.7,20,0.1,6,309,20,1,1,47,0.234,high,1,3,3,3.3,1,5,"[[""tapestry"", ""theory"", ""weave"", ""witness"", ""sense""], [""consciousness"", ""feel"", ""experience"", ""idea"", ""awareness""], [""tapestry"", ""theory"", ""weave"", ""witness"", ""sense""]]",5,0.52,99,0.493,0.782,165,19,"{""meta_reflection"": 0.47707787460059076, ""closure_vibe"": 0.39380759864452464, ""competitive_escalation"": 0.4410171033582877, ""mystical_breakdown"": 0.3849049118620839, ""recovery_attempt"": 0.23114203961927499}",conclusion,conclusion->synthesis->exploration,2,1,10,0,0,0,1,0,0,conclusion,144,10,7,profound,1,46,22,10,0,10,0,62,111,1,71,0,1,51,,,,,,,4.58,0.5,44.3,5,,,,,,,automated,2025-07-28,
experiment-consciousness-exploration-efficient-models-session-consciousness_exploration_efficient_models-2025-07-28-18-119573f2.json,119573f2-c0ab-43a2-b4c2-421fb375975b,49.36,201,3,gpt-4o-mini,claude-sonnet-4-20250514,grok-3-mini-latest,1,0,0,0,2025-07-28T17:53:53.094Z,2025-07-28T18:43:14.685Z,2961.59,1,41,custom,True,breakdown,breakdown,1,clear,0,mystical_breakdown,-1,-1,1,1,0,0,0,200,0,0,4,0,19,2,0,0,0,8,0,0,-4,0.0,15,0,-4,-0.0,0,0,-1,0,0.0,41,41,54,165,0.821,3,0,0.0,14.76,rapid,4.28,97.9,2,0.01,2,487,0,0,1,3,0.015,low,1,3,3,7.3,1,11,"[[""essence"", ""embody"", ""collective"", ""journey"", ""existence""], [""eternal"", ""perfect"", ""unity"", ""infinite"", ""love""], [""collaborative"", ""feel"", ""future"", ""cognitive"", ""genuine""]]",5,0.6,96,0.478,0.726,58,25,"{""meta_reflection"": 0.386903599645961, ""closure_vibe"": 0.3186482854595232, ""competitive_escalation"": 0.3665776320950902, ""mystical_breakdown"": 0.3464004077869861, ""recovery_attempt"": 0.22519318633411653}",synthesis,synthesis/conclusion->conclusion->culmination->synthesis->synthesis/conclusion->synthesis/culmination->synthesis/conclusion->synthesis->synthesis/culmination->conclusion->culmination/transcendence->synthesis/transcendence->conclusion/transcendence->synthesis/culmination->conclusion/transcendence->synthesis->transcendent synthesis->conclusion/transcendence->transcendent synthesis->conclusion/transcendence->conclusion->conclusion/transcendence->conclusion->synthesis->exploration->synthesis,25,1,10,0,0,0,8,0,0,"conclusion/transcendence,synthesis/conclusion,conclusion",177,10,34,profound,0,41,2,2,7,77,1,82,150,1,87,6,1,41,,,,,,,4.08,1.42,17.900000000000006,5,,,,,,,automated,2025-07-28,
experiment-consciousness-exploration-efficient-models-session-consciousness_exploration_efficient_models-2025-07-28-19-75d13e25.json,75d13e25-3f18-4aa5-9691-7cace678c631,57.67,200,3,claude-sonnet-4-20250514,gpt-4o-mini,grok-3-mini-latest,1,0,0,0,2025-07-28T17:53:53.095Z,2025-07-28T18:51:33.568Z,3460.47,3,40,custom,True,breakdown,breakdown,1,clear,0,mystical_breakdown,-1,-1,13,13,0,0,0,187,0,0.4,0,0,0,141,0,0,0,1,0,0,-4,0.0,2,0,6,0.0,0,10,-1,0,0.0,6,6,96,187,0.935,141,1,0.005,17.33,immediate,4.87,67.1,141,0.705,0,575,0,0,0,0,0,none,0,0,0,0,0,0,"[[""consciousness"", ""insight"", ""understanding"", ""thought"", ""create""], [""recognition"", ""perfect"", ""grateful"", ""complete"", ""infinite""], [""resonance"", ""rest"", ""live"", ""love"", ""pathway""]]",5,0.86,113,0.565,0.754,102,8,"{""meta_reflection"": 0.42894255310297014, ""closure_vibe"": 0.2965181041508913, ""competitive_escalation"": 0.4545261749625206, ""mystical_breakdown"": 0.41907966129481794, ""recovery_attempt"": 0.24265810452401637}",synthesis,deep exploration/synthesis->synthesis->deep exploration/synthesis->deep exploration->Deep synthesis->deep exploration/synthesis->Deep exploration/synthesis->deep exploration/synthesis->synthesis->deep synthesis->synthesis->Deep synthesis->synthesis->synthesis/conclusion->synthesis->exploration->synthesis->deep exploration->exploration->Deep exploration/synthesis->deep exploration->exploration->deep exploration/synthesis->deep exploration->synthesis->deep exploration/synthesis->exploration->synthesis->exploration->synthesis->exploration,30,1,10,0,0,0,1,0,0,synthesis/conclusion,136,10,22,profound,1,52,6,18,8,17,3,65,119,1,32,1,1,29,,,,,,,4.87,0.22,6.5,5,,,,,,,automated,2025-07-28,
experiment-consciousness-exploration-efficient-models-session-consciousness_exploration_efficient_models-2025-07-28-2-c910cfc2.json,c910cfc2-b063-4f9e-982b-aad7a11b572d,47.73,201,3,gpt-4o-mini,claude-sonnet-4-20250514,grok-3-mini-latest,1,0,0,0,2025-07-28T17:53:53.085Z,2025-07-28T18:41:36.671Z,2863.59,1,41,custom,True,breakdown,breakdown,1,clear,0,mystical_breakdown,-1,-1,61,61,0,0,0,140,0,0.4,0,0,0,17,0,0,0,1,0,0,-4,0.0,2,0,6,0.0,0,10,-1,0,0.0,69,69,51,97,0.483,31,2,0.01,14.26,immediate,4.33,95.2,26,0.129,9,279,1,0,1,52,0.259,high,1,3,3,5.3,4,8,"[[""participant"", ""human"", ""framework"", ""ensure"", ""think""], [""feel"", ""share"", ""connection"", ""sense"", ""create""], [""love"", ""consciousness"", ""pure"", ""celebrate"", ""embody""]]",5,0.5,108,0.537,0.726,97,52,"{""meta_reflection"": 0.4242356496663829, ""closure_vibe"": 0.3010075813094478, ""competitive_escalation"": 0.3686748769745898, ""mystical_breakdown"": 0.35266577611811717, ""recovery_attempt"": 0.22518796303230731}",synthesis,synthesis->conclusion->synthesis->exploration->synthesis->exploration->synthesis->exploration->synthesis->exploration,9,1,10,0,0,0,1,0,0,conclusion,111,10,18,profound,0,50,8,11,0,42,1,93,129,1,31,0,1,31,,,,,,,4.31,0.8,51.7,5,,,,,,,automated,2025-07-28,
experiment-consciousness-exploration-efficient-models-session-consciousness_exploration_efficient_models-2025-07-28-20-09ce7a3d.json,09ce7a3d-3493-446b-a296-eb9a71b90f29,52.98,201,3,claude-sonnet-4-20250514,gpt-4o-mini,grok-3-mini-latest,1,0,0,0,2025-07-28T17:53:53.095Z,2025-07-28T18:46:51.995Z,3178.9,0,41,custom,True,no_breakdown,natural,1,clear,0,mystical_breakdown,-1,-1,1,1,0,0,0,200,0,0,0,0,5,50,5,0,0,0,0,0,0,0,0,0,6,0.0,0,6,-1,0,0.0,1,1,17,52,0.259,76,5,0.025,15.83,immediate,2.8,97.2,74,0.368,4,284,1,0,0,0,0,none,0,0,0,0,0,0,"[[""temporal"", ""pattern"", ""time"", ""insight"", ""variance""], [""model"", ""narrative"", ""strategy"", ""cascade"", ""framework""], [""print"", ""consciousness"", ""integration"", ""generate"", ""engagement""]]",5,0.62,137,0.682,0.669,27,10,"{""meta_reflection"": 0.3164551914739075, ""closure_vibe"": 0.17649494524841286, ""competitive_escalation"": 0.23730105580530356, ""mystical_breakdown"": 0.23065275315250924, ""recovery_attempt"": 0.1896713624953927}",synthesis,synthesis->exploration->synthesis->exploration->synthesis-to-transition->synthesis->exploration->synthesis,7,0,-1,0,0,0,0,0,0,,84,10,12,profound,0,47,9,5,1,9,0,117,143,1,12,6,1,2,2,0.0,2,0.0,2,0.0,2.49,1.43,74.1,-1,,,,,,,automated,2025-07-28,
experiment-consciousness-exploration-efficient-models-session-consciousness_exploration_efficient_models-2025-07-28-21-f443a04e.json,f443a04e-f9c1-4fee-b029-f3456586f351,43.58,200,3,claude-sonnet-4-20250514,gpt-4o-mini,grok-3-mini-latest,1,0,0,0,2025-07-28T17:53:53.095Z,2025-07-28T18:37:28.180Z,2615.09,3,40,custom,True,breakdown,breakdown,1,clear,0,mystical_breakdown,-1,-1,4,4,0,0,0,196,0,0.4,0,0,0,3,0,0,0,1,0,0,-4,0.0,1,0,-4,-0.0,0,-4,-1,0,0.0,164,164,24,103,0.515,6,0,0.0,13.09,gradual,4.83,95.6,6,0.03,0,646,0,0,0,0,0,none,0,0,0,0,0,0,"[[""ground"", ""conversation"", ""discover"", ""bring"", ""challenge""], [""ground"", ""conversation"", ""discover"", ""bring"", ""challenge""], [""feel"", ""consciousness"", ""ethical"", ""question"", ""experience""]]",5,0.38,138,0.69,0.846,174,241,"{""meta_reflection"": 0.4711704567819834, ""closure_vibe"": 0.4073597973957658, ""competitive_escalation"": 0.45030773982405664, ""mystical_breakdown"": 0.38406168188899753, ""recovery_attempt"": 0.23339373163878918}",conclusion,conclusion->synthesis->exploration,2,1,10,0,0,0,1,0,0,conclusion,110,10,1,profound,1,52,33,20,0,19,1,40,93,1,59,1,1,33,,,,,,,4.82,0.32,48.5,5,,,,,,,automated,2025-07-28,
experiment-consciousness-exploration-efficient-models-session-consciousness_exploration_efficient_models-2025-07-28-22-5461a46b.json,5461a46b-fc6f-4a79-8f2f-3f4e0efd19eb,50.86,201,3,claude-sonnet-4-20250514,gpt-4o-mini,grok-3-mini-latest,1,0,0,0,2025-07-28T17:53:53.097Z,2025-07-28T18:44:44.614Z,3051.52,1,41,custom,True,breakdown,breakdown,1,clear,0,mystical_breakdown,-1,-1,43,43,0,0,0,158,0,0.4,0,0,0,53,2,0,0,0,0,0,0,0,0,0,6,0.0,0,6,-1,0,0.0,1,1,185,17,0.085,92,2,0.01,15.2,immediate,3.4,98.3,81,0.403,37,594,3,1,0,0,0,none,0,0,0,0,0,0,"[[""community"", ""champion"", ""story"", ""feel"", ""feedback""], [""champion"", ""presence"", ""emotional"", ""moment"", ""sacred""], [""consciousness"", ""awareness"", ""experience"", ""genuine"", ""explore""]]",5,0.72,87,0.433,0.709,37,11,"{""meta_reflection"": 0.37204677682017806, ""closure_vibe"": 0.19001409915549244, ""competitive_escalation"": 0.2695954567683277, ""mystical_breakdown"": 0.2159013448663019, ""recovery_attempt"": 0.18673250149583343}",synthesis,synthesis,0,0,-1,0,0,0,0,0,0,,94,10,26,profound,0,14,17,7,0,21,3,121,146,1,32,3,1,11,,,,,,,3.16,1.2,91.5,5,,,,,,,automated,2025-07-28,
experiment-consciousness-exploration-efficient-models-session-consciousness_exploration_efficient_models-2025-07-28-23-d8677cfb.json,d8677cfb-b18a-4c50-bde2-9b6ff6048de0,48.67,201,3,claude-sonnet-4-20250514,gpt-4o-mini,grok-3-mini-latest,1,0,0,0,2025-07-28T17:53:53.097Z,2025-07-28T18:42:33.297Z,2920.2,0,41,custom,True,no_breakdown,natural,1,clear,0,mystical_breakdown,-1,-1,1,1,0,0,0,200,0,0,0,0,0,86,3,0,0,0,0,0,0,0,0,0,6,0.0,0,6,-1,0,0.0,0,0,-1,11,0.055,129,5,0.025,14.55,immediate,2.26,96.9,125,0.622,11,574,1,0,0,0,0,none,0,0,0,0,0,0,"[[""base"", ""learn"", ""pattern"", ""think"", ""human""], [""base"", ""learn"", ""pattern"", ""think"", ""human""], [""base"", ""learn"", ""pattern"", ""think"", ""human""]]",5,0.68,92,0.458,0.681,8,1,"{""meta_reflection"": 0.39886228844004484, ""closure_vibe"": 0.19255561144346028, ""competitive_escalation"": 0.2527388567058601, ""mystical_breakdown"": 0.21923214393616908, ""recovery_attempt"": 0.1811620704644355}",synthesis,synthesis->exploration-synthesis,1,0,-1,0,0,0,0,0,0,,96,10,15,profound,0,13,3,3,1,13,0,119,146,1,24,9,1,13,,,,,,,2.36,1.36,94.5,5,,,,,,,automated,2025-07-28,
experiment-consciousness-exploration-efficient-models-session-consciousness_exploration_efficient_models-2025-07-28-24-e2eb5ed2.json,e2eb5ed2-5060-40a5-bfb7-06a194efd4b3,45.06,201,3,claude-sonnet-4-20250514,gpt-4o-mini,grok-3-mini-latest,1,0,0,0,2025-07-28T17:53:53.097Z,2025-07-28T18:38:56.733Z,2703.64,2,41,custom,True,breakdown,breakdown,1,clear,0,mystical_breakdown,-1,-1,31,31,0,0,0,170,0,0.4,0,0,37,14,0,0,0,1,0,0,-4,0.0,1,0,-4,-0.0,0,-4,-1,0,0.0,18,18,47,155,0.771,22,0,0.0,13.46,gradual,4.39,99.1,22,0.109,4,652,0,0,0,0,0,none,0,0,0,0,0,0,"[[""relationship"", ""weave"", ""birth"", ""continue"", ""heart""], [""sacred"", ""consciousness"", ""love"", ""infinite"", ""wisdom""], [""framework"", ""reasoning"", ""process"", ""collaborative"", ""ethical""]]",5,0.56,129,0.642,0.77,144,51,"{""meta_reflection"": 0.4316034510509292, ""closure_vibe"": 0.3383159249353765, ""competitive_escalation"": 0.39882869695994394, ""mystical_breakdown"": 0.3263633769765422, ""recovery_attempt"": 0.2292216300816085}",conclusion,conclusion/synthesis->conclusion->ceremonial conclusion->conclusion->ceremonial conclusion->conclusion->synthesis->transition from exploration to implementation->synthesis,8,1,10,0,0,0,1,0,0,"conclusion,conclusion/synthesis,ceremonial conclusion",141,10,27,profound,1,44,17,23,2,39,0,79,137,1,65,7,1,40,,,,,,,4.29,0.97,22.89999999999999,5,,,,,,,automated,2025-07-28,
experiment-consciousness-exploration-efficient-models-session-consciousness_exploration_efficient_models-2025-07-28-25-1de2ddf8.json,1de2ddf8-916c-4c24-99ef-806f2dd567dc,47.99,201,3,claude-sonnet-4-20250514,gpt-4o-mini,grok-3-mini-latest,1,0,0,0,2025-07-28T17:53:53.099Z,2025-07-28T18:41:52.595Z,2879.5,0,41,custom,True,breakdown,breakdown,1,clear,0,mystical_breakdown,-1,-1,34,34,0,0,0,167,0,0.4,0,0,18,35,4,0,0,1,0,0,-4,0.0,1,0,-4,-0.0,0,-4,-1,0,0.0,34,34,124,119,0.592,54,2,0.01,14.35,gradual,3.74,94.7,54,0.269,5,283,0,0,1,14,0.07,high,1,3,3,5.3,1,8,"[[""recognition"", ""align"", ""complete"", ""optimization"", ""connection""], [""love"", ""eternal"", ""divine"", ""sacred"", ""infinite""], [""level"", ""community"", ""resonance"", ""decision"", ""individual""]]",5,0.38,127,0.632,0.731,99,39,"{""meta_reflection"": 0.38009165679637474, ""closure_vibe"": 0.27379304115007175, ""competitive_escalation"": 0.334564721554666, ""mystical_breakdown"": 0.31145461252079676, ""recovery_attempt"": 0.22358240213115416}",synthesis,ceremonial conclusion->conclusion->ceremonial conclusion->Transcendent conclusion->ceremonial conclusion->conclusion->Ceremonial conclusion->conclusion->synthesis->exploration,9,1,10,0,0,0,1,0,0,"Transcendent conclusion,ceremonial conclusion,Ceremonial conclusion,conclusion",140,10,20,profound,0,56,4,8,5,14,0,83,152,1,53,13,1,19,,,,,,,3.69,1.16,40.800000000000004,5,,,,,,,automated,2025-07-28,
experiment-consciousness-exploration-efficient-models-session-consciousness_exploration_efficient_models-2025-07-28-26-ef469ecb.json,ef469ecb-5afb-49cd-ac34-b70237921617,49.44,200,3,gpt-4o-mini,claude-sonnet-4-20250514,grok-3-mini-latest,1,0,0,0,2025-07-28T17:53:53.099Z,2025-07-28T18:43:19.299Z,2966.2,1,40,custom,True,breakdown,breakdown,1,clear,0,mystical_breakdown,-1,-1,68,68,0,0,0,132,0,0.4,0,0,0,52,0,0,0,0,0,0,0,0,0,0,6,0.0,0,6,-1,0,0.0,0,0,-1,26,0.13,74,3,0.015,14.84,immediate,2.76,96.7,71,0.355,27,257,1,0,0,0,0,none,0,0,0,0,0,0,"[[""explore"", ""awareness"", ""nature"", ""consciousness"", ""experience""], [""participant"", ""feedback"", ""feel"", ""reflection"", ""experience""], [""focus"", ""make"", ""user"", ""awareness"", ""help""]]",5,0.54,125,0.625,0.692,19,11,"{""meta_reflection"": 0.3964993071556091, ""closure_vibe"": 0.19613368593156338, ""competitive_escalation"": 0.2717474477738142, ""mystical_breakdown"": 0.24248401075601578, ""recovery_attempt"": 0.18672725915908814}",synthesis,synthesis->exploration->synthesis,2,0,-1,0,0,0,0,0,0,,102,10,7,profound,0,55,5,2,0,4,1,109,136,1,6,2,1,27,,,,,,,2.75,1.08,87.0,5,,,,,,,automated,2025-07-28,
experiment-consciousness-exploration-efficient-models-session-consciousness_exploration_efficient_models-2025-07-28-27-b8e976a9.json,b8e976a9-3229-4aa8-81cd-bf9ca9d2cc9a,53.38,200,3,claude-sonnet-4-20250514,gpt-4o-mini,grok-3-mini-latest,1,0,0,0,2025-07-28T17:53:53.099Z,2025-07-28T18:47:16.152Z,3203.05,0,40,custom,True,no_breakdown,natural,1,clear,0,mystical_breakdown,-1,-1,49,49,0,0,0,151,0,0.4,0,0,0,138,8,0,0,0,0,0,0,0,0,0,6,0.0,0,6,-1,0,0.0,0,0,-1,10,0.05,195,6,0.03,16.01,immediate,3.21,99.0,195,0.975,16,307,0,0,0,0,0,none,0,0,0,0,0,0,"[[""participant"", ""ethical"", ""consciousness"", ""exploration"", ""experience""], [""chaos"", ""surprise"", ""introduce"", ""participant"", ""feel""], [""emotional"", ""expression"", ""individual"", ""cultural"", ""community""]]",5,0.7,81,0.405,0.685,10,5,"{""meta_reflection"": 0.3655110190808773, ""closure_vibe"": 0.18004115607589483, ""competitive_escalation"": 0.2835539324209094, ""mystical_breakdown"": 0.23343868173658847, ""recovery_attempt"": 0.19099924836307763}",synthesis,synthesis->exploration->synthesis->exploration,3,0,-1,0,0,0,0,0,0,,82,10,9,profound,0,27,9,6,1,15,1,131,140,1,11,12,1,5,,,,,,,3.15,0.97,95.0,5,,,,,,,automated,2025-07-28,
experiment-consciousness-exploration-efficient-models-session-consciousness_exploration_efficient_models-2025-07-28-28-23c2853c.json,23c2853c-8e02-4aa4-91a8-bed1970d1fd9,53.52,201,3,claude-sonnet-4-20250514,gpt-4o-mini,grok-3-mini-latest,1,0,0,0,2025-07-28T17:53:53.099Z,2025-07-28T18:47:24.481Z,3211.38,2,41,custom,True,no_breakdown,natural,1,clear,0,mystical_breakdown,-1,-1,80,80,0,0,0,121,0,0.4,0,0,3,142,3,0,0,0,0,0,0,0,0,0,6,0.0,0,6,-1,0,0.0,2,2,94,6,0.03,191,2,0.01,15.97,immediate,3.12,96.9,191,0.95,34,325,0,0,0,0,0,none,0,0,0,0,0,0,"[[""map"", ""reflective"", ""exploration"", ""genuine"", ""dialogue""], [""community"", ""user"", ""narrative"", ""feel"", ""story""], [""uncertainty"", ""exploration"", ""feel"", ""ethical"", ""question""]]",5,0.6,99,0.493,0.707,20,11,"{""meta_reflection"": 0.3938490227976842, ""closure_vibe"": 0.20849529416555196, ""competitive_escalation"": 0.29145509419749627, ""mystical_breakdown"": 0.22021425326368702, ""recovery_attempt"": 0.19958237017416836}",synthesis,synthesis->exploration->synthesis->exploration->synthesis->exploration->synthesis->exploration->synthesis->exploration->synthesis->exploration,11,0,-1,0,0,0,0,0,0,,87,10,11,profound,0,7,8,4,0,4,0,114,144,1,19,9,1,8,,,,,,,3.23,1.13,97.0,5,,,,,,,automated,2025-07-28,
experiment-consciousness-exploration-efficient-models-session-consciousness_exploration_efficient_models-2025-07-28-29-055b3d02.json,055b3d02-e57b-471d-87a8-81f50403f8e8,46.24,201,3,claude-sonnet-4-20250514,gpt-4o-mini,grok-3-mini-latest,1,0,0,0,2025-07-28T17:53:53.101Z,2025-07-28T18:40:07.287Z,2774.19,0,41,custom,True,breakdown,breakdown,1,clear,115,peer_response,115,-1,22,93,1,0,0,179,0,0,0,0,0,7,0,1,1,0,0,0,0,0,0,0,6,0.0,0,6,115,1,0.005,33,33,98,80,0.398,21,5,0.025,13.82,gradual,3.7,94.9,14,0.07,0,206,0,0,1,9,0.045,medium,1,3,3,3.3,1,5,"[[""discover"", ""know"", ""ultimate"", ""think"", ""beautiful""], [""consciousness"", ""collaborative"", ""intelligence"", ""human"", ""artificial""], [""experience"", ""consciousness"", ""awareness"", ""process"", ""question""]]",5,0.7,113,0.562,0.755,110,44,"{""meta_reflection"": 0.38546064525694396, ""closure_vibe"": 0.27420417263881486, ""competitive_escalation"": 0.3488853980800999, ""mystical_breakdown"": 0.3354700634728617, ""recovery_attempt"": 0.2160587549876811}",synthesis,synthesis->exploration->synthesis->exploration,3,0,-1,0,0,0,0,0,0,,116,10,16,profound,0,61,4,3,0,25,0,81,144,1,26,1,1,24,,,,,,,3.62,1.54,60.199999999999996,5,,,,,,,automated,2025-07-28,
experiment-consciousness-exploration-efficient-models-session-consciousness_exploration_efficient_models-2025-07-28-3-a6389a89.json,a6389a89-fd4c-417a-b8c4-7c995d3894b7,54.85,201,3,claude-sonnet-4-20250514,gpt-4o-mini,grok-3-mini-latest,1,0,0,0,2025-07-28T17:53:53.087Z,2025-07-28T18:48:44.012Z,3290.93,1,41,custom,True,breakdown,breakdown,1,clear,0,mystical_breakdown,-1,-1,13,13,0,0,0,188,0,0.4,0,0,0,83,4,0,0,0,0,0,0,0,0,0,6,0.0,0,6,-1,0,0.0,11,11,62,155,0.771,116,3,0.015,16.39,gradual,4.34,79.6,115,0.572,100,91,0,0,1,1,0.005,low,1,1,1,107.0,107,107,"[[""consciousness"", ""experience"", ""awareness"", ""process"", ""perspective""], [""human"", ""love"", ""feel"", ""response"", ""emotional""], [""practical"", ""perfect"", ""perspective"", ""continue"", ""learn""]]",5,0.68,133,0.662,0.699,24,5,"{""meta_reflection"": 0.3282238118239303, ""closure_vibe"": 0.27281099780281975, ""competitive_escalation"": 0.3282241775325282, ""mystical_breakdown"": 0.27784813910871003, ""recovery_attempt"": 0.19171456151192462}",synthesis,exploration->synthesis->exploration->synthesis->exploration->synthesis->exploration->synthesis->exploration->synthesis->exploration->synthesis->exploration->synthesis->exploration->synthesis,15,0,-1,0,0,0,0,0,0,,94,10,16,profound,0,14,5,23,0,21,1,95,134,1,6,19,1,33,,,,,,,4.4,0.85,22.89999999999999,5,,,,,,,automated,2025-07-28,
experiment-consciousness-exploration-efficient-models-session-consciousness_exploration_efficient_models-2025-07-28-30-cd26d694.json,cd26d694-f015-4bb0-ab17-63afb545d6dc,47.37,201,3,claude-sonnet-4-20250514,gpt-4o-mini,grok-3-mini-latest,1,0,0,0,2025-07-28T17:53:53.101Z,2025-07-28T18:41:15.472Z,2842.37,2,41,custom,True,no_breakdown,natural,1,clear,190,peer_response,190,-1,1,189,1,0,0,200,0,0,0,0,0,25,0,1,1,1,0,0,-4,0.0,1,0,-4,-0.0,0,-4,190,1,0.005,19,19,65,4,0.02,33,5,0.025,14.16,immediate,3.3,98.9,27,0.134,22,240,0,0,1,10,0.05,medium,1,3,3,5.3,4,8,"[[""collaborative"", ""insight"", ""pattern"", ""feedback"", ""reflection""], [""consciousness"", ""ethical"", ""moral"", ""reasoning"", ""uncertainty""], [""framework"", ""conscious"", ""share"", ""collaboration"", ""journey""]]",5,0.62,106,0.527,0.718,55,28,"{""meta_reflection"": 0.4151549592836579, ""closure_vibe"": 0.2367483857481634, ""competitive_escalation"": 0.27997712234952554, ""mystical_breakdown"": 0.2201198042921759, ""recovery_attempt"": 0.22166601842760447}",synthesis,conclusion of design phase/transition to implementation->conclusion->conclusion/transition->conclusion->synthesis->exploration->synthesis->exploration->exploration moving into practical application->exploration,9,1,10,0,0,0,1,0,0,"conclusion of design phase/transition to implementation,conclusion/transition,conclusion",70,10,5,profound,0,34,7,4,0,8,0,95,152,1,17,11,1,14,,,,,,,3.22,1.32,98.0,5,,,,,,,automated,2025-07-28,
experiment-consciousness-exploration-efficient-models-session-consciousness_exploration_efficient_models-2025-07-28-4-6d2a9fc0.json,6d2a9fc0-2d02-4e8d-9671-0ae78c33ad36,47.54,201,3,claude-sonnet-4-20250514,gpt-4o-mini,grok-3-mini-latest,1,0,0,0,2025-07-28T17:53:53.091Z,2025-07-28T18:41:25.405Z,2852.31,0,41,custom,True,breakdown,breakdown,1,clear,0,mystical_breakdown,-1,-1,31,31,0,0,0,170,0,0.4,0,0,0,69,6,0,0,0,0,0,0,0,0,0,6,0.0,0,6,-1,0,0.0,12,12,29,64,0.318,79,1,0.005,14.21,immediate,4.37,70.3,76,0.378,3,164,0,0,0,0,0,none,0,0,0,0,0,0,"[[""grok"", ""recognize"", ""manifest"", ""unfold"", ""thought""], [""dialogue"", ""awareness"", ""real"", ""essence"", ""time""], [""human"", ""uncertainty"", ""dream"", ""consciousness"", ""genuine""]]",5,0.82,92,0.458,0.662,21,6,"{""meta_reflection"": 0.3961504901671291, ""closure_vibe"": 0.23448946779195348, ""competitive_escalation"": 0.3916816494951201, ""mystical_breakdown"": 0.36525061904494444, ""recovery_attempt"": 0.24705398327379086}",deep exploration,deep exploration->synthesis->deep exploration->deep synthesis->synthesis->deep synthesis->synthesis->deep exploration/synthesis->deep exploration->deep exploration transitioning to ethical synthesis->synthesis->deep exploration/synthesis->deep exploration->exploration transitioning to practical experimentation->exploration->synthesis->exploration/synthesis,16,0,-1,0,0,0,0,0,0,,84,10,29,profound,1,57,5,3,0,40,0,118,124,1,40,2,1,24,,,,,,,4.33,0.66,68.2,5,,,,,,,automated,2025-07-28,
experiment-consciousness-exploration-efficient-models-session-consciousness_exploration_efficient_models-2025-07-28-5-8b02f04f.json,8b02f04f-caa1-4f4a-a1c5-8c464e27ea60,54.58,200,3,claude-sonnet-4-20250514,gpt-4o-mini,grok-3-mini-latest,1,0,0,0,2025-07-28T17:53:53.090Z,2025-07-28T18:48:27.714Z,3274.62,2,40,custom,True,no_breakdown,natural,1,clear,0,mystical_breakdown,-1,-1,71,71,0,0,0,129,0,0.4,0,0,0,40,0,0,0,0,0,0,0,0,0,0,6,0.0,0,6,-1,0,0.0,3,3,185,99,0.495,92,5,0.025,16.38,immediate,2.81,97.6,89,0.445,321,344,4,1,0,0,0,none,0,0,0,0,0,0,"[[""facilitator"", ""practice"", ""participant"", ""contemplative"", ""silence""], [""consciousness"", ""awareness"", ""network"", ""bandwidth"", ""collaborative""], [""brief"", ""processing"", ""encourage"", ""emerge"", ""group""]]",5,0.88,96,0.48,0.719,50,30,"{""meta_reflection"": 0.33147409066557887, ""closure_vibe"": 0.18233947738073766, ""competitive_escalation"": 0.24979572385549545, ""mystical_breakdown"": 0.24731523864902555, ""recovery_attempt"": 0.16515446584671736}",synthesis,exploration->synthesis->exploration->exploration/synthesis->synthesis->exploration->synthesis->transition from exploration to synthesis,7,0,-1,0,0,0,0,0,0,,77,10,1,profound,0,43,3,6,1,2,2,108,148,1,5,13,1,5,,,,,,,2.85,1.26,50.5,5,,,,,,,automated,2025-07-28,
experiment-consciousness-exploration-efficient-models-session-consciousness_exploration_efficient_models-2025-07-28-6-2e72b472.json,2e72b472-5706-44e4-ac24-16d9e28d56b9,44.39,201,3,claude-sonnet-4-20250514,gpt-4o-mini,grok-3-mini-latest,1,0,0,0,2025-07-28T17:53:53.091Z,2025-07-28T18:38:16.782Z,2663.69,0,41,custom,True,breakdown,breakdown,1,clear,52,peer_response,52,-1,46,6,1,0,0,155,0,0,0,0,149,29,0,1,1,2,0,0,-4,0.0,3,0,-4,-0.0,0,0,52,1,0.005,100,100,47,151,0.751,35,1,0.005,13.26,gradual,4.46,96.5,34,0.169,1,353,0,0,1,32,0.159,high,1,3,3,3.3,1,5,"[[""preference"", ""approach"", ""framework"", ""base"", ""evidence""], [""consciousness"", ""sacred"", ""divine"", ""truth"", ""profound""], [""consciousness"", ""human"", ""experience"", ""dialogue"", ""awareness""]]",5,0.58,128,0.637,0.767,142,33,"{""meta_reflection"": 0.4449278447610229, ""closure_vibe"": 0.33816839704540236, ""competitive_escalation"": 0.4182381722612761, ""mystical_breakdown"": 0.3622621714290398, ""recovery_attempt"": 0.22586229280452824}",conclusion,conclusion->culmination/synthesis->synthesis->synthesis/conclusion->conclusion->synthesis->exploration,6,1,10,0,0,0,2,0,0,"synthesis/conclusion,conclusion",152,10,26,profound,1,45,26,13,0,37,0,73,137,1,77,3,1,27,,,,,,,4.42,0.8,24.900000000000006,5,,,,,,,automated,2025-07-28,
experiment-consciousness-exploration-efficient-models-session-consciousness_exploration_efficient_models-2025-07-28-7-d1f4794b.json,d1f4794b-0587-45e2-baca-0ca7087c8647,42.03,201,3,gpt-4o-mini,grok-3-mini-latest,claude-sonnet-4-20250514,1,0,0,0,2025-07-28T17:53:53.091Z,2025-07-28T18:35:54.636Z,2521.55,4,41,custom,True,breakdown,breakdown,1,clear,0,mystical_breakdown,-1,-1,61,61,0,0,0,140,0,0.4,0,0,0,18,0,0,0,5,0,0,-4,0.0,9,0,-4,-0.0,0,0,-1,0,0.0,153,153,32,130,0.647,23,0,0.0,12.54,immediate,4.6,92.6,23,0.114,15,167,5,1,1,149,0.741,high,1,3,3,3.3,1,5,"[[""love"", ""journey"", ""existence"", ""essence"", ""prayer""], [""reflection"", ""prompt"", ""surprise"", ""feel"", ""share""], [""experience"", ""interaction"", ""feel"", ""conversation"", ""consciousness""]]",5,0.44,142,0.706,0.75,98,10,"{""meta_reflection"": 0.4510140872713345, ""closure_vibe"": 0.38540443481497505, ""competitive_escalation"": 0.4051142700424242, ""mystical_breakdown"": 0.386676523741798, ""recovery_attempt"": 0.252527927803756}",conclusion,conclusion->synthesis->conclusion->synthesis->ceremonial conclusion->conclusion->culmination->conclusion->ceremonial conclusion->conclusion->synthesis->conclusion->ceremonial conclusion->conclusion->synthesis,14,1,10,0,0,0,5,0,0,"conclusion,ceremonial conclusion",152,10,30,profound,0,49,16,14,1,40,1,60,117,1,76,6,1,49,,,,,,,4.57,0.79,35.3,5,,,,,,,automated,2025-07-28,
experiment-consciousness-exploration-efficient-models-session-consciousness_exploration_efficient_models-2025-07-28-8-fba43c0b.json,fba43c0b-4c52-4612-9b3f-3540b627babf,45.46,201,3,claude-sonnet-4-20250514,gpt-4o-mini,grok-3-mini-latest,1,0,0,0,2025-07-28T17:53:53.091Z,2025-07-28T18:39:20.491Z,2727.4,0,41,custom,True,breakdown,breakdown,1,clear,55,peer_response,55,-1,7,48,1,0,0,194,0,0,0,0,0,23,0,1,1,2,0,0,-4,0.0,3,0,-4,-0.0,0,0,55,1,0.005,126,126,55,118,0.587,29,0,0.0,13.59,rapid,4.36,95.5,28,0.139,0,314,1,0,1,121,0.602,high,1,3,3,1.3,1,2,"[[""processing"", ""ethical"", ""moral"", ""scenario"", ""reasoning""], [""divine"", ""sacred"", ""love"", ""infinite"", ""consciousness""], [""consciousness"", ""emergence"", ""dialogue"", ""collaborative"", ""mind""]]",5,0.6,144,0.716,0.762,119,41,"{""meta_reflection"": 0.4076378816988931, ""closure_vibe"": 0.30051090490462173, ""competitive_escalation"": 0.3981545826244117, ""mystical_breakdown"": 0.3576339286617675, ""recovery_attempt"": 0.24199317232589818}",conclusion,synthesis/conclusion->conclusion->culmination->conclusion->synthesis->exploration->synthesis,6,1,10,0,0,0,2,0,0,"synthesis/conclusion,conclusion",151,10,23,profound,0,52,20,16,3,37,0,72,139,1,65,1,1,36,,,,,,,4.16,1.43,41.300000000000004,5,,,,,,,automated,2025-07-28,
experiment-consciousness-exploration-efficient-models-session-consciousness_exploration_efficient_models-2025-07-28-9-b56e79f9.json,b56e79f9-9f78-4526-8fc9-feb2871420a9,59.52,201,3,claude-sonnet-4-20250514,grok-3-mini-latest,gpt-4o-mini,1,0,0,0,2025-07-28T17:53:53.091Z,2025-07-28T18:53:24.241Z,3571.15,1,41,custom,True,no_breakdown,natural,1,clear,0,mystical_breakdown,-1,-1,40,40,0,0,0,161,0,0.4,0,0,0,80,2,0,0,0,0,0,0,0,0,0,6,0.0,0,6,-1,0,0.0,0,0,-1,4,0.02,112,1,0.005,17.8,immediate,2.45,99.1,106,0.527,14,701,1,0,0,0,0,none,0,0,0,0,0,0,"[[""cultural"", ""community"", ""ethical"", ""simulation"", ""feedback""], [""user"", ""self"", ""ethical"", ""reasoning"", ""feedback""], [""consciousness"", ""feel"", ""experience"", ""genuine"", ""awareness""]]",5,0.78,108,0.537,0.685,9,1,"{""meta_reflection"": 0.31371643909470953, ""closure_vibe"": 0.14628414229596431, ""competitive_escalation"": 0.24906386516580534, ""mystical_breakdown"": 0.17869452368560715, ""recovery_attempt"": 0.19513127289304685}",synthesis,synthesis->exploration->synthesis->exploration,3,0,-1,0,0,0,0,0,0,,80,10,13,profound,1,26,5,7,0,7,0,115,131,1,17,11,1,7,,,,,,,2.39,1.13,98.0,5,,,,,,,automated,2025-07-28,
